%time,field.header.seq,field.header.stamp,field.header.frame_id,field.orientation.x,field.orientation.y,field.orientation.z,field.orientation.w,field.orientation_covariance0,field.orientation_covariance1,field.orientation_covariance2,field.orientation_covariance3,field.orientation_covariance4,field.orientation_covariance5,field.orientation_covariance6,field.orientation_covariance7,field.orientation_covariance8,field.angular_velocity.x,field.angular_velocity.y,field.angular_velocity.z,field.angular_velocity_covariance0,field.angular_velocity_covariance1,field.angular_velocity_covariance2,field.angular_velocity_covariance3,field.angular_velocity_covariance4,field.angular_velocity_covariance5,field.angular_velocity_covariance6,field.angular_velocity_covariance7,field.angular_velocity_covariance8,field.linear_acceleration.x,field.linear_acceleration.y,field.linear_acceleration.z,field.linear_acceleration_covariance0,field.linear_acceleration_covariance1,field.linear_acceleration_covariance2,field.linear_acceleration_covariance3,field.linear_acceleration_covariance4,field.linear_acceleration_covariance5,field.linear_acceleration_covariance6,field.linear_acceleration_covariance7,field.linear_acceleration_covariance8
1491900033953274208,410,1491900033683823960,,7.89904117584,-1.12511527538,90.0,0.0108700003475,1.0,0.0,0.0,0.0,1.0,0.0,0.0,0.0,1.0,-0.487804889679,2.31707310677,-0.12195122242,1.0,0.0,0.0,0.0,1.0,0.0,0.0,0.0,1.0,-0.632069238281,0.0191536132812,10.3046439453,1.0,0.0,0.0,0.0,1.0,0.0,0.0,0.0,1.0
1491900033953345302,411,1491900033700552765,,7.89248847961,-1.11873173714,90.0,0.00115100003313,1.0,0.0,0.0,0.0,1.0,0.0,0.0,0.0,1.0,-0.0609756112099,2.07317066193,-0.426829278469,1.0,0.0,0.0,0.0,1.0,0.0,0.0,0.0,1.0,-0.493205541992,-0.0287304199219,10.405200415,1.0,0.0,0.0,0.0,1.0,0.0,0.0,0.0,1.0
1491900033958172177,412,1491900033722823445,,7.88714551926,-1.1136329174,90.0,0.00168200000189,1.0,0.0,0.0,0.0,1.0,0.0,0.0,0.0,1.0,-0.426829278469,2.37804889679,-0.304878056049,1.0,0.0,0.0,0.0,1.0,0.0,0.0,0.0,1.0,-0.675164868164,0.076614453125,10.2328178955,1.0,0.0,0.0,0.0,1.0,0.0,0.0,0.0,1.0
1491900033958302281,413,1491900033744662354,,7.88450479507,-1.10984909534,90.0,0.00503099989146,1.0,0.0,0.0,0.0,1.0,0.0,0.0,0.0,1.0,-0.426829278469,2.25609779358,-0.18292683363,1.0,0.0,0.0,0.0,1.0,0.0,0.0,0.0,1.0,-0.612915625,-0.0430956298828,10.4243540283,1.0,0.0,0.0,0.0,1.0,0.0,0.0,0.0,1.0
1491900033958379365,414,1491900033765471368,,7.88182687759,-1.10628890991,90.0,0.00119199999608,1.0,0.0,0.0,0.0,1.0,0.0,0.0,0.0,1.0,-0.365853667259,2.25609779358,-0.426829278469,1.0,0.0,0.0,0.0,1.0,0.0,0.0,0.0,1.0,-0.737414111328,0.100556469727,10.2280294922,1.0,0.0,0.0,0.0,1.0,0.0,0.0,0.0,1.0
1491900033958514417,415,1491900033786139444,,7.87701559067,-1.10571622849,90.0,0.00112100003753,1.0,0.0,0.0,0.0,1.0,0.0,0.0,0.0,1.0,-0.365853667259,2.25609779358,-0.670731723309,1.0,0.0,0.0,0.0,1.0,0.0,0.0,0.0,1.0,-0.598550451572,0.067037651051,10.2807019287,1.0,0.0,0.0,0.0,1.0,0.0,0.0,0.0,1.0
1491900033958632281,416,1491900033807715645,,7.87250185013,-1.10238814354,90.0,0.00117199996021,1.0,0.0,0.0,0.0,1.0,0.0,0.0,0.0,1.0,-0.548780500889,2.37804889679,-0.0609756112099,1.0,0.0,0.0,0.0,1.0,0.0,0.0,0.0,1.0,-0.593762048251,-0.0430956298828,10.4387192383,1.0,0.0,0.0,0.0,1.0,0.0,0.0,0.0,1.0
1491900033958827698,417,1491900033828626794,,7.87060403824,-1.09641754627,90.0,0.00220600003377,1.0,0.0,0.0,0.0,1.0,0.0,0.0,0.0,1.0,-0.304878056049,2.19512200356,-0.365853667259,1.0,0.0,0.0,0.0,1.0,0.0,0.0,0.0,1.0,-0.60812722168,0.0526724365234,10.1466266357,1.0,0.0,0.0,0.0,1.0,0.0,0.0,0.0,1.0
1491900033958952490,418,1491900033849818880,,7.86695623398,-1.09421038628,90.0,0.00412900000811,1.0,0.0,0.0,0.0,1.0,0.0,0.0,0.0,1.0,-0.609756112099,2.07317066193,-0.426829278469,1.0,0.0,0.0,0.0,1.0,0.0,0.0,0.0,1.0,-0.502782348633,0.0622492431641,10.1083194092,1.0,0.0,0.0,0.0,1.0,0.0,0.0,0.0,1.0
1491900033959065615,419,1491900033870722112,,7.8621969223,-1.09456467628,90.0,0.00113999994937,1.0,0.0,0.0,0.0,1.0,0.0,0.0,0.0,1.0,-0.487804889679,2.19512200356,-0.609756112099,1.0,0.0,0.0,0.0,1.0,0.0,0.0,0.0,1.0,-0.502782348633,0.00957680664062,10.4578728516,1.0,0.0,0.0,0.0,1.0,0.0,0.0,0.0,1.0
1491900033959245563,420,1491900033892538105,,7.85751008987,-1.0930891037,90.0,0.00486799981445,1.0,0.0,0.0,0.0,1.0,0.0,0.0,0.0,1.0,-0.304878056049,2.56097555161,-0.12195122242,1.0,0.0,0.0,0.0,1.0,0.0,0.0,0.0,1.0,-0.560243188477,0.0430956298828,10.2328178955,1.0,0.0,0.0,0.0,1.0,0.0,0.0,0.0,1.0
1491900033959441709,421,1491900033917698682,,7.85033607483,-1.08733928204,90.0,0.00510999979451,1.0,0.0,0.0,0.0,1.0,0.0,0.0,0.0,1.0,-0.18292683363,2.07317066193,-0.12195122242,1.0,0.0,0.0,0.0,1.0,0.0,0.0,0.0,1.0,-0.507570751953,-0.0430956298828,10.2519715088,1.0,0.0,0.0,0.0,1.0,0.0,0.0,0.0,1.0
1491900033959514052,422,1491900033936948164,,7.84930515289,-1.09185242653,90.0,0.00125099997967,1.0,0.0,0.0,0.0,1.0,0.0,0.0,0.0,1.0,-0.609756112099,1.8292683363,0.0,1.0,0.0,0.0,0.0,1.0,0.0,0.0,0.0,1.0,-0.541089611728,-0.0478840332031,10.2040874756,1.0,0.0,0.0,0.0,1.0,0.0,0.0,0.0,1.0
1491900033962199053,423,1491900033958605042,,7.84112024307,-1.08889710903,90.0,0.00135899998713,1.0,0.0,0.0,0.0,1.0,0.0,0.0,0.0,1.0,-0.487804889679,1.76829278469,-0.12195122242,1.0,0.0,0.0,0.0,1.0,0.0,0.0,0.0,1.0,-0.45968671875,0.00957680664062,10.3333743652,1.0,0.0,0.0,0.0,1.0,0.0,0.0,0.0,1.0
1491900033980640618,424,1491900033979025982,,7.83699989319,-1.08603048325,90.0,0.00112799997441,1.0,0.0,0.0,0.0,1.0,0.0,0.0,0.0,1.0,-0.12195122242,1.8902438879,-0.243902444839,1.0,0.0,0.0,0.0,1.0,0.0,0.0,0.0,1.0,-0.502782348633,0.0191536132812,10.2328178955,1.0,0.0,0.0,0.0,1.0,0.0,0.0,0.0,1.0
1491900034001858173,425,1491900034000131506,,7.83096647263,-1.08131444454,90.0,0.0010000000475,1.0,0.0,0.0,0.0,1.0,0.0,0.0,0.0,1.0,-0.243902444839,2.13414645195,-0.487804889679,1.0,0.0,0.0,0.0,1.0,0.0,0.0,0.0,1.0,-0.488417138672,0.0287304199219,10.2711251221,1.0,0.0,0.0,0.0,1.0,0.0,0.0,0.0,1.0
1491900034022896666,426,1491900034021182082,,7.82214736938,-1.07820928097,90.0,0.00131099997088,1.0,0.0,0.0,0.0,1.0,0.0,0.0,0.0,1.0,-0.670731723309,2.25609779358,-0.426829278469,1.0,0.0,0.0,0.0,1.0,0.0,0.0,0.0,1.0,-0.517147558594,-0.0814028564453,10.314220752,1.0,0.0,0.0,0.0,1.0,0.0,0.0,0.0,1.0
1491900034043961877,427,1491900034042368544,,7.82236480713,-1.07325589657,90.0,0.00541900005192,1.0,0.0,0.0,0.0,1.0,0.0,0.0,0.0,1.0,-0.304878056049,2.37804889679,-0.426829278469,1.0,0.0,0.0,0.0,1.0,0.0,0.0,0.0,1.0,-0.555454785156,0.076614453125,10.180145459,1.0,0.0,0.0,0.0,1.0,0.0,0.0,0.0,1.0
1491900034064692297,428,1491900034063411828,,7.81838607788,-1.06996333599,90.0,0.00104000000283,1.0,0.0,0.0,0.0,1.0,0.0,0.0,0.0,1.0,-0.792682945728,2.37804889679,-0.426829278469,1.0,0.0,0.0,0.0,1.0,0.0,0.0,0.0,1.0,-0.603338854892,0.0383072265625,10.1226846191,1.0,0.0,0.0,0.0,1.0,0.0,0.0,0.0,1.0
1491900034085255112,429,1491900034083989175,,7.81924438477,-1.06680095196,90.0,0.00118400005158,1.0,0.0,0.0,0.0,1.0,0.0,0.0,0.0,1.0,-0.548780500889,2.31707310677,-0.426829278469,1.0,0.0,0.0,0.0,1.0,0.0,0.0,0.0,1.0,-0.579396801758,0.0,10.2232410889,1.0,0.0,0.0,0.0,1.0,0.0,0.0,0.0,1.0
1491900034106047876,430,1491900034104859594,,7.81896066666,-1.06316900253,90.0,0.00114599999506,1.0,0.0,0.0,0.0,1.0,0.0,0.0,0.0,1.0,-0.426829278469,2.5,-0.365853667259,1.0,0.0,0.0,0.0,1.0,0.0,0.0,0.0,1.0,-0.675164868164,-0.0814028564453,10.2902787354,1.0,0.0,0.0,0.0,1.0,0.0,0.0,0.0,1.0
1491900034126350066,431,1491900034125180952,,7.82065057755,-1.06131207943,90.0,0.00103199994192,1.0,0.0,0.0,0.0,1.0,0.0,0.0,0.0,1.0,-0.365853667259,2.43902444839,-0.0609756112099,1.0,0.0,0.0,0.0,1.0,0.0,0.0,0.0,1.0,-0.799663354492,0.119710083008,10.2471831055,1.0,0.0,0.0,0.0,1.0,0.0,0.0,0.0,1.0
1491900034149225747,432,1491900034147081423,,7.82245874405,-1.05465435982,90.0,0.00189199997112,1.0,0.0,0.0,0.0,1.0,0.0,0.0,0.0,1.0,-0.426829278469,2.25609779358,-0.18292683363,1.0,0.0,0.0,0.0,1.0,0.0,0.0,0.0,1.0,-0.60812722168,0.0191536132812,10.1897222656,1.0,0.0,0.0,0.0,1.0,0.0,0.0,0.0,1.0
1491900034170483562,433,1491900034168437000,,7.82048797607,-1.05096507072,90.0,0.00112999998964,1.0,0.0,0.0,0.0,1.0,0.0,0.0,0.0,1.0,-0.548780500889,2.01219511032,-0.18292683363,1.0,0.0,0.0,0.0,1.0,0.0,0.0,0.0,1.0,-0.656011254883,0.0622492431641,10.1322614258,1.0,0.0,0.0,0.0,1.0,0.0,0.0,0.0,1.0
1491900034192661638,434,1491900034189649034,,7.81642627716,-1.04489314556,90.0,0.00126000004821,1.0,0.0,0.0,0.0,1.0,0.0,0.0,0.0,1.0,-0.18292683363,1.64634156227,-0.12195122242,1.0,0.0,0.0,0.0,1.0,0.0,0.0,0.0,1.0,-0.588973571866,0.0239420166016,10.2328178955,1.0,0.0,0.0,0.0,1.0,0.0,0.0,0.0,1.0
1491900034211950235,435,1491900034209992787,,7.80855894089,-1.04400849342,90.0,0.00102399999741,1.0,0.0,0.0,0.0,1.0,0.0,0.0,0.0,1.0,-0.487804889679,1.76829278469,-0.426829278469,1.0,0.0,0.0,0.0,1.0,0.0,0.0,0.0,1.0,-0.483628735352,0.0526724365234,10.2807019287,1.0,0.0,0.0,0.0,1.0,0.0,0.0,0.0,1.0
1491900034236258155,436,1491900034231597634,,7.80368423462,-1.0419203043,90.0,0.00113300001249,1.0,0.0,0.0,0.0,1.0,0.0,0.0,0.0,1.0,-0.670731723309,2.31707310677,-0.12195122242,1.0,0.0,0.0,0.0,1.0,0.0,0.0,0.0,1.0,-0.632069238281,-0.0143652099609,10.299855542,1.0,0.0,0.0,0.0,1.0,0.0,0.0,0.0,1.0
1491900034257123731,437,1491900034252177064,,7.79459428787,-1.04049801826,90.0,0.00103399995714,1.0,0.0,0.0,0.0,1.0,0.0,0.0,0.0,1.0,-0.731707334518,2.37804889679,-0.0609756112099,1.0,0.0,0.0,0.0,1.0,0.0,0.0,0.0,1.0,-0.512359155273,0.0622492431641,10.1418382324,1.0,0.0,0.0,0.0,1.0,0.0,0.0,0.0,1.0
1491900034276991026,438,1491900034273514671,,7.78553009033,-1.03950369358,90.0,0.00100899999961,1.0,0.0,0.0,0.0,1.0,0.0,0.0,0.0,1.0,-0.487804889679,2.68292689323,-0.18292683363,1.0,0.0,0.0,0.0,1.0,0.0,0.0,0.0,1.0,-0.483628735352,-0.00478840332031,10.1945106689,1.0,0.0,0.0,0.0,1.0,0.0,0.0,0.0,1.0
1491900034296909727,439,1491900034294285455,,7.78367805481,-1.04033851624,90.0,0.00126000004821,1.0,0.0,0.0,0.0,1.0,0.0,0.0,0.0,1.0,-0.670731723309,2.56097555161,-0.365853667259,1.0,0.0,0.0,0.0,1.0,0.0,0.0,0.0,1.0,-0.569819995117,0.0622492431641,10.2567599121,1.0,0.0,0.0,0.0,1.0,0.0,0.0,0.0,1.0
1491900034318440042,440,1491900034314880198,,7.78716182709,-1.0413377285,90.0,0.00137900002301,1.0,0.0,0.0,0.0,1.0,0.0,0.0,0.0,1.0,-0.670731723309,2.92682933807,-0.487804889679,1.0,0.0,0.0,0.0,1.0,0.0,0.0,0.0,1.0,-0.550666381836,0.00957680664062,10.2328178955,1.0,0.0,0.0,0.0,1.0,0.0,0.0,0.0,1.0
1491900034338750149,441,1491900034336209316,,7.79893302917,-1.04081308842,90.0,0.00114099995699,1.0,0.0,0.0,0.0,1.0,0.0,0.0,0.0,1.0,-0.731707334518,2.68292689323,-0.426829278469,1.0,0.0,0.0,0.0,1.0,0.0,0.0,0.0,1.0,-0.61770402832,0.0,10.3908352051,1.0,0.0,0.0,0.0,1.0,0.0,0.0,0.0,1.0
1491900034359205829,442,1491900034357562340,,7.81674051285,-1.0412979126,90.0,0.00145099998917,1.0,0.0,0.0,0.0,1.0,0.0,0.0,0.0,1.0,-0.548780500889,2.62195134163,-0.548780500889,1.0,0.0,0.0,0.0,1.0,0.0,0.0,0.0,1.0,-0.603338854892,0.00478840332031,10.2711251221,1.0,0.0,0.0,0.0,1.0,0.0,0.0,0.0,1.0
1491900034381061614,443,1491900034379455989,,7.83278036118,-1.03960251808,90.0,0.00131500000134,1.0,0.0,0.0,0.0,1.0,0.0,0.0,0.0,1.0,-0.487804889679,2.62195134163,-0.243902444839,1.0,0.0,0.0,0.0,1.0,0.0,0.0,0.0,1.0,-0.61770402832,0.0335188255255,10.2902787354,1.0,0.0,0.0,0.0,1.0,0.0,0.0,0.0,1.0
1491900034402177190,444,1491900034400592762,,7.83964920044,-1.04022026062,90.0,0.00218300009146,1.0,0.0,0.0,0.0,1.0,0.0,0.0,0.0,1.0,-0.487804889679,2.01219511032,-0.487804889679,1.0,0.0,0.0,0.0,1.0,0.0,0.0,0.0,1.0,-0.555454785156,-0.0335188255255,10.3812583984,1.0,0.0,0.0,0.0,1.0,0.0,0.0,0.0,1.0
1491900034424471985,445,1491900034421272401,,7.8389081955,-1.03666746616,90.0,0.00121200003196,1.0,0.0,0.0,0.0,1.0,0.0,0.0,0.0,1.0,-0.609756112099,2.07317066193,-0.304878056049,1.0,0.0,0.0,0.0,1.0,0.0,0.0,0.0,1.0,-0.45489831543,-0.076614453125,10.1753570557,1.0,0.0,0.0,0.0,1.0,0.0,0.0,0.0,1.0
1491900034444102613,446,1491900034442399644,,7.83121395111,-1.03207170963,90.0,0.00151800003368,1.0,0.0,0.0,0.0,1.0,0.0,0.0,0.0,1.0,-0.12195122242,2.19512200356,-0.304878056049,1.0,0.0,0.0,0.0,1.0,0.0,0.0,0.0,1.0,-0.593762048251,0.0335188255255,10.2136642822,1.0,0.0,0.0,0.0,1.0,0.0,0.0,0.0,1.0
1491900034465195897,447,1491900034463786053,,7.81930541992,-1.03022170067,90.0,0.00158100004774,1.0,0.0,0.0,0.0,1.0,0.0,0.0,0.0,1.0,-0.426829278469,2.01219511032,-0.304878056049,1.0,0.0,0.0,0.0,1.0,0.0,0.0,0.0,1.0,-0.579396801758,0.0383072265625,10.1705686523,1.0,0.0,0.0,0.0,1.0,0.0,0.0,0.0,1.0
1491900034485764910,448,1491900034484599910,,7.80872106552,-1.02487874031,90.0,0.00140299997292,1.0,0.0,0.0,0.0,1.0,0.0,0.0,0.0,1.0,-0.670731723309,2.19512200356,-0.243902444839,1.0,0.0,0.0,0.0,1.0,0.0,0.0,0.0,1.0,-0.632069238281,0.0,10.4818148682,1.0,0.0,0.0,0.0,1.0,0.0,0.0,0.0,1.0
1491900034506063976,449,1491900034504694444,,7.80219745636,-1.01852965355,90.0,0.00181299995165,1.0,0.0,0.0,0.0,1.0,0.0,0.0,0.0,1.0,-0.243902444839,2.19512200356,-0.18292683363,1.0,0.0,0.0,0.0,1.0,0.0,0.0,0.0,1.0,-0.622492431641,0.0143652099609,10.2615483154,1.0,0.0,0.0,0.0,1.0,0.0,0.0,0.0,1.0
1491900034527133614,450,1491900034525984135,,7.80066871643,-1.0126131773,90.0,0.00109899998643,1.0,0.0,0.0,0.0,1.0,0.0,0.0,0.0,1.0,-0.304878056049,2.25609779358,-0.548780500889,1.0,0.0,0.0,0.0,1.0,0.0,0.0,0.0,1.0,-0.670376464844,0.0526724365234,10.3094323486,1.0,0.0,0.0,0.0,1.0,0.0,0.0,0.0,1.0
1491900034548024503,451,1491900034546820648,,7.79789495468,-1.01253771782,90.0,0.00101999996696,1.0,0.0,0.0,0.0,1.0,0.0,0.0,0.0,1.0,-0.243902444839,2.56097555161,-0.548780500889,1.0,0.0,0.0,0.0,1.0,0.0,0.0,0.0,1.0,-0.579396801758,-0.0143652099609,10.2136642822,1.0,0.0,0.0,0.0,1.0,0.0,0.0,0.0,1.0
1491900034568624141,452,1491900034567341589,,7.80266618729,-1.01194989681,90.0,0.00108800001908,1.0,0.0,0.0,0.0,1.0,0.0,0.0,0.0,1.0,-0.426829278469,2.31707310677,-0.365853667259,1.0,0.0,0.0,0.0,1.0,0.0,0.0,0.0,1.0,-0.684741674805,-0.0478840332031,10.314220752,1.0,0.0,0.0,0.0,1.0,0.0,0.0,0.0,1.0
1491900034589846071,453,1491900034588609977,,7.80830287933,-1.01031446457,90.0,0.0010000000475,1.0,0.0,0.0,0.0,1.0,0.0,0.0,0.0,1.0,-0.304878056049,2.25609779358,-0.304878056049,1.0,0.0,0.0,0.0,1.0,0.0,0.0,0.0,1.0,-0.679953271484,0.167594116211,10.2902787354,1.0,0.0,0.0,0.0,1.0,0.0,0.0,0.0,1.0
1491900034611165137,454,1491900034609989564,,7.80756044388,-1.00877785683,90.0,0.00104400003329,1.0,0.0,0.0,0.0,1.0,0.0,0.0,0.0,1.0,-0.487804889679,2.31707310677,-0.18292683363,1.0,0.0,0.0,0.0,1.0,0.0,0.0,0.0,1.0,-0.550666381836,-0.0191536132812,10.3812583984,1.0,0.0,0.0,0.0,1.0,0.0,0.0,0.0,1.0
1491900034632097536,455,1491900034630935504,,7.80479812622,-1.00781702995,90.0,0.00109599996358,1.0,0.0,0.0,0.0,1.0,0.0,0.0,0.0,1.0,-0.670731723309,1.8902438879,-0.12195122242,1.0,0.0,0.0,0.0,1.0,0.0,0.0,0.0,1.0,-0.565031591797,0.0430956298828,10.2471831055,1.0,0.0,0.0,0.0,1.0,0.0,0.0,0.0,1.0
1491900034654849310,456,1491900034651997539,,7.80524492264,-1.00397622585,90.0,0.00102800002787,1.0,0.0,0.0,0.0,1.0,0.0,0.0,0.0,1.0,-0.609756112099,2.01219511032,0.304878056049,1.0,0.0,0.0,0.0,1.0,0.0,0.0,0.0,1.0,-0.555454785156,-0.105344873047,10.165780249,1.0,0.0,0.0,0.0,1.0,0.0,0.0,0.0,1.0
1491900034674446969,457,1491900034673150094,,7.79391431808,-1.00174105167,90.0,0.00101600005291,1.0,0.0,0.0,0.0,1.0,0.0,0.0,0.0,1.0,-0.365853667259,2.07317066193,0.0,1.0,0.0,0.0,0.0,1.0,0.0,0.0,0.0,1.0,-0.622492431641,0.0191536132812,10.1992990723,1.0,0.0,0.0,0.0,1.0,0.0,0.0,0.0,1.0
1491900034697476556,458,1491900034694777441,,7.78501796722,-0.999327540398,90.0,0.00121000001673,1.0,0.0,0.0,0.0,1.0,0.0,0.0,0.0,1.0,-0.670731723309,1.64634156227,-0.243902444839,1.0,0.0,0.0,0.0,1.0,0.0,0.0,0.0,1.0,-0.574608398438,0.0718260498047,10.2567599121,1.0,0.0,0.0,0.0,1.0,0.0,0.0,0.0,1.0
1491900034718740100,459,1491900034716005829,,7.77763652802,-0.997677981853,90.0,0.00125800003298,1.0,0.0,0.0,0.0,1.0,0.0,0.0,0.0,1.0,-0.243902444839,1.95121955872,-0.426829278469,1.0,0.0,0.0,0.0,1.0,0.0,0.0,0.0,1.0,-0.593762048251,0.0191536132812,10.3190091553,1.0,0.0,0.0,0.0,1.0,0.0,0.0,0.0,1.0
1491900034740095416,460,1491900034737066249,,7.77006673813,-0.99835729599,90.0,0.00117399997544,1.0,0.0,0.0,0.0,1.0,0.0,0.0,0.0,1.0,-0.548780500889,1.95121955872,-0.18292683363,1.0,0.0,0.0,0.0,1.0,0.0,0.0,0.0,1.0,-0.469263525391,-0.0239420166016,10.2567599121,1.0,0.0,0.0,0.0,1.0,0.0,0.0,0.0,1.0
1491900034759807711,461,1491900034757925835,,7.76413059235,-0.998454988003,90.0,0.00121100002434,1.0,0.0,0.0,0.0,1.0,0.0,0.0,0.0,1.0,-0.304878056049,2.07317066193,-0.18292683363,1.0,0.0,0.0,0.0,1.0,0.0,0.0,0.0,1.0,-0.474051928711,-0.0478840332031,10.2759135254,1.0,0.0,0.0,0.0,1.0,0.0,0.0,0.0,1.0
1491900034781925006,462,1491900034779385474,,7.76249933243,-0.998329162598,90.0,0.00145500001963,1.0,0.0,0.0,0.0,1.0,0.0,0.0,0.0,1.0,-0.609756112099,2.31707310677,-0.487804889679,1.0,0.0,0.0,0.0,1.0,0.0,0.0,0.0,1.0,-0.550666381836,0.00478840332031,10.2376062988,1.0,0.0,0.0,0.0,1.0,0.0,0.0,0.0,1.0
1491900034803903811,463,1491900034800168446,,7.76256942749,-0.999090313911,90.0,0.00126900000032,1.0,0.0,0.0,0.0,1.0,0.0,0.0,0.0,1.0,-0.304878056049,2.31707310677,-0.670731723309,1.0,0.0,0.0,0.0,1.0,0.0,0.0,0.0,1.0,-0.497993945312,-0.0574608398438,10.4243540283,1.0,0.0,0.0,0.0,1.0,0.0,0.0,0.0,1.0
1491900034824928710,464,1491900034820433501,,7.76061487198,-0.995087921619,90.0,0.00116099999286,1.0,0.0,0.0,0.0,1.0,0.0,0.0,0.0,1.0,-0.426829278469,2.56097555161,-0.487804889679,1.0,0.0,0.0,0.0,1.0,0.0,0.0,0.0,1.0,-0.430956298828,0.0,10.419565625,1.0,0.0,0.0,0.0,1.0,0.0,0.0,0.0,1.0
1491900034844600483,465,1491900034841549598,,7.76161289215,-0.991369903088,90.0,0.00110300001688,1.0,0.0,0.0,0.0,1.0,0.0,0.0,0.0,1.0,-0.365853667259,2.5,-0.670731723309,1.0,0.0,0.0,0.0,1.0,0.0,0.0,0.0,1.0,-0.474051928711,-0.0191536132812,10.3190091553,1.0,0.0,0.0,0.0,1.0,0.0,0.0,0.0,1.0
1491900034865622049,466,1491900034863083715,,7.76444339752,-0.987053275108,90.0,0.00132599996869,1.0,0.0,0.0,0.0,1.0,0.0,0.0,0.0,1.0,-0.548780500889,2.80487799644,-0.487804889679,1.0,0.0,0.0,0.0,1.0,0.0,0.0,0.0,1.0,-0.550666381836,0.100556469727,10.1322614258,1.0,0.0,0.0,0.0,1.0,0.0,0.0,0.0,1.0
1491900034885844812,467,1491900034883928875,,7.76998996735,-0.987862050533,90.0,0.00116700003855,1.0,0.0,0.0,0.0,1.0,0.0,0.0,0.0,1.0,-0.609756112099,2.62195134163,-0.304878056049,1.0,0.0,0.0,0.0,1.0,0.0,0.0,0.0,1.0,-0.622492431641,-0.0239420166016,10.4004120117,1.0,0.0,0.0,0.0,1.0,0.0,0.0,0.0,1.0
1491900034907457003,468,1491900034905562992,,7.77716445923,-0.984044611454,90.0,0.00218899990432,1.0,0.0,0.0,0.0,1.0,0.0,0.0,0.0,1.0,-0.548780500889,2.56097555161,-0.304878056049,1.0,0.0,0.0,0.0,1.0,0.0,0.0,0.0,1.0,-0.713472094727,0.0718260498047,10.1514150391,1.0,0.0,0.0,0.0,1.0,0.0,0.0,0.0,1.0
1491900034928547214,469,1491900034926788725,,7.78148651123,-0.989483654499,90.0,0.00114399997983,1.0,0.0,0.0,0.0,1.0,0.0,0.0,0.0,1.0,-0.487804889679,2.43902444839,-0.365853667259,1.0,0.0,0.0,0.0,1.0,0.0,0.0,0.0,1.0,-0.574608398438,-0.0861912597656,10.2040874756,1.0,0.0,0.0,0.0,1.0,0.0,0.0,0.0,1.0
1491900034948931540,470,1491900034947627686,,7.7871465683,-0.990554153919,90.0,0.00112899998203,1.0,0.0,0.0,0.0,1.0,0.0,0.0,0.0,1.0,-0.365853667259,2.31707310677,-0.304878056049,1.0,0.0,0.0,0.0,1.0,0.0,0.0,0.0,1.0,-0.679953271484,-0.0574608398438,10.2280294922,1.0,0.0,0.0,0.0,1.0,0.0,0.0,0.0,1.0
1491900034970308470,471,1491900034968508522,,7.78699159622,-0.98591953516,90.0,0.000975999981165,1.0,0.0,0.0,0.0,1.0,0.0,0.0,0.0,1.0,-0.487804889679,2.07317066193,-0.243902444839,1.0,0.0,0.0,0.0,1.0,0.0,0.0,0.0,1.0,-0.627280834961,0.119710083008,10.1322614258,1.0,0.0,0.0,0.0,1.0,0.0,0.0,0.0,1.0
1491900034991325609,472,1491900034988945661,,7.78458356857,-0.983643829823,90.0,0.00102500000503,1.0,0.0,0.0,0.0,1.0,0.0,0.0,0.0,1.0,-0.426829278469,1.8292683363,-0.0609756112099,1.0,0.0,0.0,0.0,1.0,0.0,0.0,0.0,1.0,-0.713472094727,0.100556469727,10.2376062988,1.0,0.0,0.0,0.0,1.0,0.0,0.0,0.0,1.0
1491900035014227331,473,1491900035010755247,,7.77949810028,-0.980225622654,90.0,0.00141200004146,1.0,0.0,0.0,0.0,1.0,0.0,0.0,0.0,1.0,-0.487804889679,2.07317066193,-0.12195122242,1.0,0.0,0.0,0.0,1.0,0.0,0.0,0.0,1.0,-0.641646044922,0.00957680664062,10.4818148682,1.0,0.0,0.0,0.0,1.0,0.0,0.0,0.0,1.0
1491900035033030250,474,1491900035031614052,,7.77240610123,-0.97565561533,90.0,0.0011190000223,1.0,0.0,0.0,0.0,1.0,0.0,0.0,0.0,1.0,-0.609756112099,2.13414645195,-0.0609756112099,1.0,0.0,0.0,0.0,1.0,0.0,0.0,0.0,1.0,-0.588973571866,0.0430956298828,10.2088758789,1.0,0.0,0.0,0.0,1.0,0.0,0.0,0.0,1.0
1491900035054696764,475,1491900035052848170,,7.75804710388,-0.971798717976,90.0,0.00105600000825,1.0,0.0,0.0,0.0,1.0,0.0,0.0,0.0,1.0,-0.365853667259,2.62195134163,-0.18292683363,1.0,0.0,0.0,0.0,1.0,0.0,0.0,0.0,1.0,-0.569819995117,-0.00478840332031,10.1705686523,1.0,0.0,0.0,0.0,1.0,0.0,0.0,0.0,1.0
1491900035076397236,476,1491900035074082548,,7.75269985199,-0.96816265583,90.0,0.00111399998423,1.0,0.0,0.0,0.0,1.0,0.0,0.0,0.0,1.0,-0.548780500889,3.04878044128,-0.243902444839,1.0,0.0,0.0,0.0,1.0,0.0,0.0,0.0,1.0,-0.603338854892,-0.076614453125,10.2902787354,1.0,0.0,0.0,0.0,1.0,0.0,0.0,0.0,1.0
1491900035098259531,477,1491900035096587760,,7.76243305206,-0.965477764606,90.0,0.00319300009869,1.0,0.0,0.0,0.0,1.0,0.0,0.0,0.0,1.0,-0.304878056049,2.80487799644,-0.548780500889,1.0,0.0,0.0,0.0,1.0,0.0,0.0,0.0,1.0,-0.493205541992,-0.00478840332031,10.2902787354,1.0,0.0,0.0,0.0,1.0,0.0,0.0,0.0,1.0
1491900035119071096,478,1491900035117641304,,7.77575922012,-0.962390303612,90.0,0.00118300004397,1.0,0.0,0.0,0.0,1.0,0.0,0.0,0.0,1.0,-0.426829278469,3.10975623131,-0.670731723309,1.0,0.0,0.0,0.0,1.0,0.0,0.0,0.0,1.0,-0.488417138672,0.00957680664062,10.2136642822,1.0,0.0,0.0,0.0,1.0,0.0,0.0,0.0,1.0
1491900035140483391,479,1491900035138727922,,7.79306125641,-0.96461725235,90.0,0.00147599994671,1.0,0.0,0.0,0.0,1.0,0.0,0.0,0.0,1.0,-0.609756112099,2.86585378647,-0.487804889679,1.0,0.0,0.0,0.0,1.0,0.0,0.0,0.0,1.0,-0.497993945312,0.105344873047,10.2615483154,1.0,0.0,0.0,0.0,1.0,0.0,0.0,0.0,1.0
1491900035161464748,480,1491900035159486988,,7.80942344666,-0.962424874306,90.0,0.00124400004279,1.0,0.0,0.0,0.0,1.0,0.0,0.0,0.0,1.0,-0.243902444839,2.68292689323,-0.365853667259,1.0,0.0,0.0,0.0,1.0,0.0,0.0,0.0,1.0,-0.579396801758,-0.0287304199219,10.2615483154,1.0,0.0,0.0,0.0,1.0,0.0,0.0,0.0,1.0
1491900035183969908,481,1491900035181246574,,7.81855392456,-0.963456213474,90.0,0.00107700005174,1.0,0.0,0.0,0.0,1.0,0.0,0.0,0.0,1.0,-0.365853667259,2.25609779358,-0.548780500889,1.0,0.0,0.0,0.0,1.0,0.0,0.0,0.0,1.0,-0.584185168546,-0.0143652099609,10.3621047852,1.0,0.0,0.0,0.0,1.0,0.0,0.0,0.0,1.0
1491900035204041682,482,1491900035202171265,,7.81871843338,-0.964046180248,90.0,0.00124300003517,1.0,0.0,0.0,0.0,1.0,0.0,0.0,0.0,1.0,-0.304878056049,2.19512200356,-0.304878056049,1.0,0.0,0.0,0.0,1.0,0.0,0.0,0.0,1.0,-0.541089611728,-0.00478840332031,10.2807019287,1.0,0.0,0.0,0.0,1.0,0.0,0.0,0.0,1.0
1491900035223545070,483,1491900035222196424,,7.8114771843,-0.963234424591,90.0,0.00104200001806,1.0,0.0,0.0,0.0,1.0,0.0,0.0,0.0,1.0,-0.365853667259,2.07317066193,-0.304878056049,1.0,0.0,0.0,0.0,1.0,0.0,0.0,0.0,1.0,-0.61770402832,-0.0383072265625,10.2136642822,1.0,0.0,0.0,0.0,1.0,0.0,0.0,0.0,1.0
1491900035246574292,484,1491900035243494812,,7.79763364792,-0.961317956448,90.0,0.00107600004412,1.0,0.0,0.0,0.0,1.0,0.0,0.0,0.0,1.0,-0.304878056049,1.95121955872,-0.12195122242,1.0,0.0,0.0,0.0,1.0,0.0,0.0,0.0,1.0,-0.675164868164,0.0335188255255,10.1945106689,1.0,0.0,0.0,0.0,1.0,0.0,0.0,0.0,1.0
1491900035266720128,485,1491900035264493253,,7.78155565262,-0.959351420403,90.0,0.00148400000762,1.0,0.0,0.0,0.0,1.0,0.0,0.0,0.0,1.0,-0.365853667259,1.70731711388,-0.12195122242,1.0,0.0,0.0,0.0,1.0,0.0,0.0,0.0,1.0,-0.60812722168,-0.0909796630859,10.3573163818,1.0,0.0,0.0,0.0,1.0,0.0,0.0,0.0,1.0
1491900035286842423,486,1491900035284946329,,7.76609754562,-0.956388950348,90.0,0.00106200005393,1.0,0.0,0.0,0.0,1.0,0.0,0.0,0.0,1.0,-0.487804889679,1.8292683363,-0.0609756112099,1.0,0.0,0.0,0.0,1.0,0.0,0.0,0.0,1.0,-0.632069238281,0.0478840332031,10.3094323486,1.0,0.0,0.0,0.0,1.0,0.0,0.0,0.0,1.0
1491900035307249769,487,1491900035305819196,,7.7588262558,-0.95593893528,90.0,0.000976999988779,1.0,0.0,0.0,0.0,1.0,0.0,0.0,0.0,1.0,-0.426829278469,2.31707310677,-0.426829278469,1.0,0.0,0.0,0.0,1.0,0.0,0.0,0.0,1.0,-0.679953271484,0.0478840332031,10.2711251221,1.0,0.0,0.0,0.0,1.0,0.0,0.0,0.0,1.0
1491900035327845397,488,1491900035326507376,,7.75970697403,-0.956258654594,90.0,0.000965000013821,1.0,0.0,0.0,0.0,1.0,0.0,0.0,0.0,1.0,-0.243902444839,2.31707310677,-0.426829278469,1.0,0.0,0.0,0.0,1.0,0.0,0.0,0.0,1.0,-0.622492431641,0.0239420166016,10.2950671387,1.0,0.0,0.0,0.0,1.0,0.0,0.0,0.0,1.0
1491900035349250609,489,1491900035347481702,,7.76248455048,-0.955640852451,90.0,0.00102600001264,1.0,0.0,0.0,0.0,1.0,0.0,0.0,0.0,1.0,-0.426829278469,2.31707310677,-0.304878056049,1.0,0.0,0.0,0.0,1.0,0.0,0.0,0.0,1.0,-0.569819995117,0.0430956298828,10.1753570557,1.0,0.0,0.0,0.0,1.0,0.0,0.0,0.0,1.0
1491900035369961862,490,1491900035368755351,,7.76765489578,-0.95808082819,90.0,0.00097499997355,1.0,0.0,0.0,0.0,1.0,0.0,0.0,0.0,1.0,-0.609756112099,2.31707310677,-0.0609756112099,1.0,0.0,0.0,0.0,1.0,0.0,0.0,0.0,1.0,-0.60812722168,0.076614453125,10.1705686523,1.0,0.0,0.0,0.0,1.0,0.0,0.0,0.0,1.0
1491900035390761813,491,1491900035389482334,,7.76762485504,-0.959285855293,90.0,0.000982000026852,1.0,0.0,0.0,0.0,1.0,0.0,0.0,0.0,1.0,-0.243902444839,1.8292683363,-0.18292683363,1.0,0.0,0.0,0.0,1.0,0.0,0.0,0.0,1.0,-0.521935925381,0.0287304199219,10.1178962158,1.0,0.0,0.0,0.0,1.0,0.0,0.0,0.0,1.0
1491900035412780670,492,1491900035410992962,,7.76155328751,-0.957562327385,90.0,0.000983000034466,1.0,0.0,0.0,0.0,1.0,0.0,0.0,0.0,1.0,-0.609756112099,2.01219511032,0.0,1.0,0.0,0.0,0.0,1.0,0.0,0.0,0.0,1.0,-0.579396801758,-0.0239420166016,10.4099888184,1.0,0.0,0.0,0.0,1.0,0.0,0.0,0.0,1.0
1491900035433137809,493,1491900035431540048,,7.74957370758,-0.957767426968,90.0,0.000977999996394,1.0,0.0,0.0,0.0,1.0,0.0,0.0,0.0,1.0,-0.548780500889,2.07317066193,-0.12195122242,1.0,0.0,0.0,0.0,1.0,0.0,0.0,0.0,1.0,-0.521935925381,0.0,10.3429511719,1.0,0.0,0.0,0.0,1.0,0.0,0.0,0.0,1.0
1491900035457000520,494,1491900035452108645,,7.73911190033,-0.959880948067,90.0,0.00152299995534,1.0,0.0,0.0,0.0,1.0,0.0,0.0,0.0,1.0,-0.609756112099,2.19512200356,-0.0609756112099,1.0,0.0,0.0,0.0,1.0,0.0,0.0,0.0,1.0,-0.517147558594,-0.0383072265625,10.1945106689,1.0,0.0,0.0,0.0,1.0,0.0,0.0,0.0,1.0
1491900035477871253,495,1491900035474715002,,7.72862243652,-0.957783401012,90.0,0.00102099997457,1.0,0.0,0.0,0.0,1.0,0.0,0.0,0.0,1.0,-0.731707334518,2.19512200356,-0.18292683363,1.0,0.0,0.0,0.0,1.0,0.0,0.0,0.0,1.0,-0.603338854892,-0.0526724365234,10.1274730225,1.0,0.0,0.0,0.0,1.0,0.0,0.0,0.0,1.0
1491900035498456516,496,1491900035496672401,,7.71748828888,-0.955553531647,90.0,0.00297100003809,1.0,0.0,0.0,0.0,1.0,0.0,0.0,0.0,1.0,-0.609756112099,2.25609779358,0.0,1.0,0.0,0.0,0.0,1.0,0.0,0.0,0.0,1.0,-0.497993945312,0.00957680664062,10.2902787354,1.0,0.0,0.0,0.0,1.0,0.0,0.0,0.0,1.0
1491900035519953915,497,1491900035518507769,,7.71694898605,-0.955615520477,90.0,0.00157399999443,1.0,0.0,0.0,0.0,1.0,0.0,0.0,0.0,1.0,-0.426829278469,2.37804889679,-0.304878056049,1.0,0.0,0.0,0.0,1.0,0.0,0.0,0.0,1.0,-0.45968671875,0.0143652099609,10.2519715088,1.0,0.0,0.0,0.0,1.0,0.0,0.0,0.0,1.0
1491900035542388762,498,1491900035540760793,,7.72406625748,-0.955674529076,90.0,0.00149399996735,1.0,0.0,0.0,0.0,1.0,0.0,0.0,0.0,1.0,-0.670731723309,2.86585378647,-0.609756112099,1.0,0.0,0.0,0.0,1.0,0.0,0.0,0.0,1.0,-0.521935925381,0.0718260498047,10.2615483154,1.0,0.0,0.0,0.0,1.0,0.0,0.0,0.0,1.0
1491900035562878348,499,1491900035561045692,,7.7369594574,-0.953819096088,90.0,0.00127500004601,1.0,0.0,0.0,0.0,1.0,0.0,0.0,0.0,1.0,-0.426829278469,2.86585378647,-0.670731723309,1.0,0.0,0.0,0.0,1.0,0.0,0.0,0.0,1.0,-0.603338854892,-0.067037651051,10.4770264648,1.0,0.0,0.0,0.0,1.0,0.0,0.0,0.0,1.0
1491900035584201529,500,1491900035582841685,,7.74835252762,-0.958252608776,90.0,0.00125400000252,1.0,0.0,0.0,0.0,1.0,0.0,0.0,0.0,1.0,-0.670731723309,3.10975623131,-0.609756112099,1.0,0.0,0.0,0.0,1.0,0.0,0.0,0.0,1.0,-0.742202514648,-0.0335188255255,10.060435376,1.0,0.0,0.0,0.0,1.0,0.0,0.0,0.0,1.0
1491900035604909240,501,1491900035603472833,,7.75833654404,-0.958789050579,90.0,0.00111599999946,1.0,0.0,0.0,0.0,1.0,0.0,0.0,0.0,1.0,-0.18292683363,2.56097555161,-0.487804889679,1.0,0.0,0.0,0.0,1.0,0.0,0.0,0.0,1.0,-0.593762048251,0.0478840332031,10.2088758789,1.0,0.0,0.0,0.0,1.0,0.0,0.0,0.0,1.0
1491900035625575024,502,1491900035624108514,,7.76326036453,-0.955245733261,90.0,0.0014230000088,1.0,0.0,0.0,0.0,1.0,0.0,0.0,0.0,1.0,-0.18292683363,2.31707310677,-0.487804889679,1.0,0.0,0.0,0.0,1.0,0.0,0.0,0.0,1.0,-0.718260498047,-0.0478840332031,10.3908352051,1.0,0.0,0.0,0.0,1.0,0.0,0.0,0.0,1.0
1491900035646628048,503,1491900035645201902,,7.7615480423,-0.9522767663,90.0,0.00108399998862,1.0,0.0,0.0,0.0,1.0,0.0,0.0,0.0,1.0,-0.365853667259,2.01219511032,-0.12195122242,1.0,0.0,0.0,0.0,1.0,0.0,0.0,0.0,1.0,-0.723048901367,0.0239420166016,10.2280294922,1.0,0.0,0.0,0.0,1.0,0.0,0.0,0.0,1.0
1491900035669705343,504,1491900035668188364,,7.75100469589,-0.945600688457,90.0,0.00320999999531,1.0,0.0,0.0,0.0,1.0,0.0,0.0,0.0,1.0,-0.365853667259,1.58536589146,0.18292683363,1.0,0.0,0.0,0.0,1.0,0.0,0.0,0.0,1.0,-0.612915625,0.105344873047,10.2136642822,1.0,0.0,0.0,0.0,1.0,0.0,0.0,0.0,1.0
1491900035691452742,505,1491900035690340034,,7.74010372162,-0.945366024971,90.0,0.00239000003785,1.0,0.0,0.0,0.0,1.0,0.0,0.0,0.0,1.0,-0.548780500889,1.95121955872,-0.18292683363,1.0,0.0,0.0,0.0,1.0,0.0,0.0,0.0,1.0,-0.541089611728,-0.0430956298828,10.285490332,1.0,0.0,0.0,0.0,1.0,0.0,0.0,0.0,1.0
1491900035712854933,506,1491900035711354047,,7.73023796082,-0.945613801479,90.0,0.00101300003007,1.0,0.0,0.0,0.0,1.0,0.0,0.0,0.0,1.0,-0.548780500889,2.25609779358,-0.12195122242,1.0,0.0,0.0,0.0,1.0,0.0,0.0,0.0,1.0,-0.517147558594,0.0383072265625,10.1609918457,1.0,0.0,0.0,0.0,1.0,0.0,0.0,0.0,1.0
1491900035736494467,507,1491900035732644363,,7.7228808403,-0.944034099579,90.0,0.000964000006206,1.0,0.0,0.0,0.0,1.0,0.0,0.0,0.0,1.0,-0.731707334518,3.10975623131,0.0,1.0,0.0,0.0,0.0,1.0,0.0,0.0,0.0,1.0,-0.507570751953,0.0143652099609,10.1514150391,1.0,0.0,0.0,0.0,1.0,0.0,0.0,0.0,1.0
1491900035755166710,508,1491900035753543897,,7.72210693359,-0.945706665516,90.0,0.00107999995816,1.0,0.0,0.0,0.0,1.0,0.0,0.0,0.0,1.0,-0.853658556938,2.86585378647,-0.609756112099,1.0,0.0,0.0,0.0,1.0,0.0,0.0,0.0,1.0,-0.550666381836,0.00957680664062,10.285490332,1.0,0.0,0.0,0.0,1.0,0.0,0.0,0.0,1.0
1491900035779245984,509,1491900035777316557,,7.72797298431,-0.94710278511,90.0,0.0013490000274,1.0,0.0,0.0,0.0,1.0,0.0,0.0,0.0,1.0,-0.365853667259,2.80487799644,-0.426829278469,1.0,0.0,0.0,0.0,1.0,0.0,0.0,0.0,1.0,-0.483628735352,-0.0287304199219,10.1753570557,1.0,0.0,0.0,0.0,1.0,0.0,0.0,0.0,1.0
1491900035799311560,510,1491900035797709893,,7.74420833588,-0.953091681004,90.0,0.00384399993345,1.0,0.0,0.0,0.0,1.0,0.0,0.0,0.0,1.0,-0.487804889679,2.74390244484,-0.18292683363,1.0,0.0,0.0,0.0,1.0,0.0,0.0,0.0,1.0,-0.531512805087,0.0,10.3429511719,1.0,0.0,0.0,0.0,1.0,0.0,0.0,0.0,1.0
1491900035820806094,511,1491900035819018021,,7.7616558075,-0.955767393112,90.0,0.00482700020075,1.0,0.0,0.0,0.0,1.0,0.0,0.0,0.0,1.0,-0.609756112099,2.68292689323,-0.426829278469,1.0,0.0,0.0,0.0,1.0,0.0,0.0,0.0,1.0,-0.550666381836,-0.0335188255255,10.2376062988,1.0,0.0,0.0,0.0,1.0,0.0,0.0,0.0,1.0
1491900035841905577,512,1491900035839810107,,7.77077245712,-0.9577704072,90.0,0.00148300000001,1.0,0.0,0.0,0.0,1.0,0.0,0.0,0.0,1.0,-0.365853667259,2.13414645195,-0.426829278469,1.0,0.0,0.0,0.0,1.0,0.0,0.0,0.0,1.0,-0.565031591797,0.0383072265625,10.3237975586,1.0,0.0,0.0,0.0,1.0,0.0,0.0,0.0,1.0
1491900035862266309,513,1491900035860778704,,7.77336597443,-0.957488059998,90.0,0.00110700004734,1.0,0.0,0.0,0.0,1.0,0.0,0.0,0.0,1.0,-0.304878056049,1.8292683363,-0.487804889679,1.0,0.0,0.0,0.0,1.0,0.0,0.0,0.0,1.0,-0.61770402832,-0.0574608398438,10.2328178955,1.0,0.0,0.0,0.0,1.0,0.0,0.0,0.0,1.0
1491900035882671885,514,1491900035881365009,,7.76479768753,-0.955680370331,90.0,0.00109999999404,1.0,0.0,0.0,0.0,1.0,0.0,0.0,0.0,1.0,-0.487804889679,1.8902438879,-0.426829278469,1.0,0.0,0.0,0.0,1.0,0.0,0.0,0.0,1.0,-0.512359155273,-0.138863696289,10.3477395752,1.0,0.0,0.0,0.0,1.0,0.0,0.0,0.0,1.0
1491900035904215377,515,1491900035902916210,,7.74825382233,-0.953695476055,90.0,0.00107300002128,1.0,0.0,0.0,0.0,1.0,0.0,0.0,0.0,1.0,-0.609756112099,1.8292683363,-0.0609756112099,1.0,0.0,0.0,0.0,1.0,0.0,0.0,0.0,1.0,-0.636857641602,0.00478840332031,10.1753570557,1.0,0.0,0.0,0.0,1.0,0.0,0.0,0.0,1.0
1491900035925496630,516,1491900035923399547,,7.72866106033,-0.953347682953,90.0,0.00100199994631,1.0,0.0,0.0,0.0,1.0,0.0,0.0,0.0,1.0,0.0,1.8902438879,-0.365853667259,1.0,0.0,0.0,0.0,1.0,0.0,0.0,0.0,1.0,-0.584185168546,0.0335188255255,10.1705686523,1.0,0.0,0.0,0.0,1.0,0.0,0.0,0.0,1.0
1491900035945984185,517,1491900035944771581,,7.71258163452,-0.953269481659,90.0,0.00147300004028,1.0,0.0,0.0,0.0,1.0,0.0,0.0,0.0,1.0,-0.18292683363,2.19512200356,-0.426829278469,1.0,0.0,0.0,0.0,1.0,0.0,0.0,0.0,1.0,-0.569819995117,0.0430956298828,10.2567599121,1.0,0.0,0.0,0.0,1.0,0.0,0.0,0.0,1.0
1491900035967002366,518,1491900035965233459,,7.71978092194,-0.952185988426,90.0,0.00105399999302,1.0,0.0,0.0,0.0,1.0,0.0,0.0,0.0,1.0,-0.365853667259,2.80487799644,-0.548780500889,1.0,0.0,0.0,0.0,1.0,0.0,0.0,0.0,1.0,-0.569819995117,0.0,10.2615483154,1.0,0.0,0.0,0.0,1.0,0.0,0.0,0.0,1.0
1491900035988427473,519,1491900035986038462,,7.72730445862,-0.951608181,90.0,0.00201799999923,1.0,0.0,0.0,0.0,1.0,0.0,0.0,0.0,1.0,-0.670731723309,2.80487799644,-0.426829278469,1.0,0.0,0.0,0.0,1.0,0.0,0.0,0.0,1.0,-0.569819995117,0.15801730957,10.1945106689,1.0,0.0,0.0,0.0,1.0,0.0,0.0,0.0,1.0
1491900036008226851,520,1491900036006571278,,7.7392745018,-0.953261196613,90.0,0.00097499997355,1.0,0.0,0.0,0.0,1.0,0.0,0.0,0.0,1.0,-0.609756112099,2.43902444839,-0.548780500889,1.0,0.0,0.0,0.0,1.0,0.0,0.0,0.0,1.0,-0.670376464844,0.00478840332031,10.2088758789,1.0,0.0,0.0,0.0,1.0,0.0,0.0,0.0,1.0
1491900036028724822,521,1491900036026978572,,7.75159358978,-0.954966843128,90.0,0.000962999998592,1.0,0.0,0.0,0.0,1.0,0.0,0.0,0.0,1.0,-0.670731723309,2.43902444839,-0.426829278469,1.0,0.0,0.0,0.0,1.0,0.0,0.0,0.0,1.0,-0.699106884766,-0.067037651051,10.2711251221,1.0,0.0,0.0,0.0,1.0,0.0,0.0,0.0,1.0
1491900036049461544,522,1491900036047848002,,7.75836324692,-0.95243281126,90.0,0.000962999998592,1.0,0.0,0.0,0.0,1.0,0.0,0.0,0.0,1.0,-0.487804889679,2.01219511032,-0.243902444839,1.0,0.0,0.0,0.0,1.0,0.0,0.0,0.0,1.0,-0.703895288086,0.0861912597656,10.2519715088,1.0,0.0,0.0,0.0,1.0,0.0,0.0,0.0,1.0
1491900036070461495,523,1491900036068684620,,7.75683736801,-0.953043222427,90.0,0.000988999963738,1.0,0.0,0.0,0.0,1.0,0.0,0.0,0.0,1.0,-0.548780500889,1.8292683363,-0.12195122242,1.0,0.0,0.0,0.0,1.0,0.0,0.0,0.0,1.0,-0.684741674805,0.191536132812,10.0748005859,1.0,0.0,0.0,0.0,1.0,0.0,0.0,0.0,1.0
1491900036093001811,524,1491900036090030300,,7.74749040604,-0.951086163521,90.0,0.00106699997559,1.0,0.0,0.0,0.0,1.0,0.0,0.0,0.0,1.0,0.12195122242,1.70731711388,-0.0609756112099,1.0,0.0,0.0,0.0,1.0,0.0,0.0,0.0,1.0,-0.565031591797,0.0909796630859,10.3812583984,1.0,0.0,0.0,0.0,1.0,0.0,0.0,0.0,1.0
1491900036113349366,525,1491900036110342543,,7.73292541504,-0.949033498764,90.0,0.000972000008915,1.0,0.0,0.0,0.0,1.0,0.0,0.0,0.0,1.0,-0.609756112099,1.40243899822,-0.243902444839,1.0,0.0,0.0,0.0,1.0,0.0,0.0,0.0,1.0,-0.574608398438,0.0478840332031,10.4147772217,1.0,0.0,0.0,0.0,1.0,0.0,0.0,0.0,1.0
1491900036133957650,526,1491900036130931400,,7.71650075912,-0.947778820992,90.0,0.000964000006206,1.0,0.0,0.0,0.0,1.0,0.0,0.0,0.0,1.0,-0.426829278469,2.01219511032,-0.18292683363,1.0,0.0,0.0,0.0,1.0,0.0,0.0,0.0,1.0,-0.507570751953,0.0191536132812,10.3621047852,1.0,0.0,0.0,0.0,1.0,0.0,0.0,0.0,1.0
1491900036154706507,527,1491900036152009632,,7.70334720612,-0.946347951889,90.0,0.000974000024144,1.0,0.0,0.0,0.0,1.0,0.0,0.0,0.0,1.0,-0.609756112099,2.19512200356,-0.12195122242,1.0,0.0,0.0,0.0,1.0,0.0,0.0,0.0,1.0,-0.45968671875,0.0335188255255,10.285490332,1.0,0.0,0.0,0.0,1.0,0.0,0.0,0.0,1.0
1491900036175412292,528,1491900036173503854,,7.69894123077,-0.944335222244,90.0,0.000967999978457,1.0,0.0,0.0,0.0,1.0,0.0,0.0,0.0,1.0,-0.670731723309,2.74390244484,-0.12195122242,1.0,0.0,0.0,0.0,1.0,0.0,0.0,0.0,1.0,-0.507570751953,0.0430956298828,10.285490332,1.0,0.0,0.0,0.0,1.0,0.0,0.0,0.0,1.0
1491900036200025212,529,1491900036194929586,,7.7036075592,-0.945583939552,90.0,0.00102199998219,1.0,0.0,0.0,0.0,1.0,0.0,0.0,0.0,1.0,-0.853658556938,2.86585378647,-0.304878056049,1.0,0.0,0.0,0.0,1.0,0.0,0.0,0.0,1.0,-0.541089611728,0.0,10.2040874756,1.0,0.0,0.0,0.0,1.0,0.0,0.0,0.0,1.0
1491900036218853079,530,1491900036216443027,,7.7113494873,-0.948183894157,90.0,0.00148900004569,1.0,0.0,0.0,0.0,1.0,0.0,0.0,0.0,1.0,-0.548780500889,2.43902444839,-0.304878056049,1.0,0.0,0.0,0.0,1.0,0.0,0.0,0.0,1.0,-0.565031591797,0.0574608398438,10.2615483154,1.0,0.0,0.0,0.0,1.0,0.0,0.0,0.0,1.0
1491900036241445791,531,1491900036237312457,,7.72385168076,-0.950513482094,90.0,0.00108600000385,1.0,0.0,0.0,0.0,1.0,0.0,0.0,0.0,1.0,-0.792682945728,2.43902444839,-0.12195122242,1.0,0.0,0.0,0.0,1.0,0.0,0.0,0.0,1.0,-0.541089611728,0.0143652099609,10.2759135254,1.0,0.0,0.0,0.0,1.0,0.0,0.0,0.0,1.0
1491900036262555065,532,1491900036258450221,,7.73387765884,-0.951620221138,90.0,0.00106499996036,1.0,0.0,0.0,0.0,1.0,0.0,0.0,0.0,1.0,-0.304878056049,2.31707310677,-0.243902444839,1.0,0.0,0.0,0.0,1.0,0.0,0.0,0.0,1.0,-0.507570751953,-0.0143652099609,10.180145459,1.0,0.0,0.0,0.0,1.0,0.0,0.0,0.0,1.0
1491900036281568088,533,1491900036278724651,,7.74145126343,-0.951959073544,90.0,0.001615999965,1.0,0.0,0.0,0.0,1.0,0.0,0.0,0.0,1.0,-0.426829278469,2.07317066193,-0.0609756112099,1.0,0.0,0.0,0.0,1.0,0.0,0.0,0.0,1.0,-0.541089611728,-0.0143652099609,10.2950671387,1.0,0.0,0.0,0.0,1.0,0.0,0.0,0.0,1.0
1491900036302108664,534,1491900036299158299,,7.73972892761,-0.951968967915,90.0,0.00115499994718,1.0,0.0,0.0,0.0,1.0,0.0,0.0,0.0,1.0,-0.304878056049,1.8292683363,-0.548780500889,1.0,0.0,0.0,0.0,1.0,0.0,0.0,0.0,1.0,-0.488417138672,0.114921679688,10.4147772217,1.0,0.0,0.0,0.0,1.0,0.0,0.0,0.0,1.0
1491900036322970803,535,1491900036319796532,,7.73120450974,-0.953010439873,90.0,0.00115599995479,1.0,0.0,0.0,0.0,1.0,0.0,0.0,0.0,1.0,-0.426829278469,1.95121955872,-0.426829278469,1.0,0.0,0.0,0.0,1.0,0.0,0.0,0.0,1.0,-0.488417138672,0.0430956298828,10.2423947021,1.0,0.0,0.0,0.0,1.0,0.0,0.0,0.0,1.0
1491900036343534868,536,1491900036340512212,,7.71912431717,-0.949413597584,90.0,0.00109300005715,1.0,0.0,0.0,0.0,1.0,0.0,0.0,0.0,1.0,-0.18292683363,1.70731711388,-0.609756112099,1.0,0.0,0.0,0.0,1.0,0.0,0.0,0.0,1.0,-0.440533105469,0.0622492431641,10.165780249,1.0,0.0,0.0,0.0,1.0,0.0,0.0,0.0,1.0
1491900036364242371,537,1491900036360934767,,7.70505142212,-0.947316169739,90.0,0.00104899995495,1.0,0.0,0.0,0.0,1.0,0.0,0.0,0.0,1.0,-0.365853667259,1.8292683363,-0.18292683363,1.0,0.0,0.0,0.0,1.0,0.0,0.0,0.0,1.0,-0.411802685547,-0.0909796630859,10.2807019287,1.0,0.0,0.0,0.0,1.0,0.0,0.0,0.0,1.0
1491900036384620551,538,1491900036381752738,,7.69249200821,-0.942976653576,90.0,0.00104400003329,1.0,0.0,0.0,0.0,1.0,0.0,0.0,0.0,1.0,-0.426829278469,2.19512200356,-0.304878056049,1.0,0.0,0.0,0.0,1.0,0.0,0.0,0.0,1.0,-0.512359155273,-0.067037651051,10.1945106689,1.0,0.0,0.0,0.0,1.0,0.0,0.0,0.0,1.0
1491900036405674669,539,1491900036403453783,,7.68790340424,-0.943056881428,90.0,0.001007999992,1.0,0.0,0.0,0.0,1.0,0.0,0.0,0.0,1.0,-0.365853667259,2.56097555161,-0.365853667259,1.0,0.0,0.0,0.0,1.0,0.0,0.0,0.0,1.0,-0.565031591797,-0.0478840332031,10.285490332,1.0,0.0,0.0,0.0,1.0,0.0,0.0,0.0,1.0
1491900036425900245,540,1491900036423612224,,7.6855802536,-0.943257629871,90.0,0.00106699997559,1.0,0.0,0.0,0.0,1.0,0.0,0.0,0.0,1.0,-0.426829278469,2.43902444839,-0.365853667259,1.0,0.0,0.0,0.0,1.0,0.0,0.0,0.0,1.0,-0.60812722168,0.0191536132812,10.3285859619,1.0,0.0,0.0,0.0,1.0,0.0,0.0,0.0,1.0
1491900036446471602,541,1491900036444060977,,7.6918759346,-0.943046987057,90.0,0.00148199999239,1.0,0.0,0.0,0.0,1.0,0.0,0.0,0.0,1.0,-0.548780500889,2.86585378647,-0.548780500889,1.0,0.0,0.0,0.0,1.0,0.0,0.0,0.0,1.0,-0.699106884766,-0.0383072265625,10.2376062988,1.0,0.0,0.0,0.0,1.0,0.0,0.0,0.0,1.0
1491900036467869939,542,1491900036465448011,,7.70507907867,-0.945007741451,90.0,0.00101600005291,1.0,0.0,0.0,0.0,1.0,0.0,0.0,0.0,1.0,-0.548780500889,2.62195134163,-0.243902444839,1.0,0.0,0.0,0.0,1.0,0.0,0.0,0.0,1.0,-0.746990917969,0.0622492431641,10.2759135254,1.0,0.0,0.0,0.0,1.0,0.0,0.0,0.0,1.0
1491900036490491088,543,1491900036486769577,,7.71781921387,-0.948145866394,90.0,0.000966000021435,1.0,0.0,0.0,0.0,1.0,0.0,0.0,0.0,1.0,-0.548780500889,2.31707310677,-0.365853667259,1.0,0.0,0.0,0.0,1.0,0.0,0.0,0.0,1.0,-0.560243188477,0.0143652099609,10.3812583984,1.0,0.0,0.0,0.0,1.0,0.0,0.0,0.0,1.0
1491900036509351976,544,1491900036507699892,,7.72416877747,-0.949597716331,90.0,0.000972000008915,1.0,0.0,0.0,0.0,1.0,0.0,0.0,0.0,1.0,-0.426829278469,2.13414645195,-0.304878056049,1.0,0.0,0.0,0.0,1.0,0.0,0.0,0.0,1.0,-0.694318481445,-0.00478840332031,10.3860468018,1.0,0.0,0.0,0.0,1.0,0.0,0.0,0.0,1.0
1491900036530400677,545,1491900036528370051,,7.72534942627,-0.949668467045,90.0,0.000961999990977,1.0,0.0,0.0,0.0,1.0,0.0,0.0,0.0,1.0,-0.304878056049,2.01219511032,0.0609756112099,1.0,0.0,0.0,0.0,1.0,0.0,0.0,0.0,1.0,-0.622492431641,0.110133276367,10.3046439453,1.0,0.0,0.0,0.0,1.0,0.0,0.0,0.0,1.0
1491900036551965732,546,1491900036549515315,,7.71614074707,-0.94671100378,90.0,0.000979000004008,1.0,0.0,0.0,0.0,1.0,0.0,0.0,0.0,1.0,-0.548780500889,1.58536589146,-0.243902444839,1.0,0.0,0.0,0.0,1.0,0.0,0.0,0.0,1.0,-0.526724328702,0.110133276367,10.2136642822,1.0,0.0,0.0,0.0,1.0,0.0,0.0,0.0,1.0
1491900036573048391,547,1491900036570385162,,7.70326709747,-0.944661140442,90.0,0.000974000024144,1.0,0.0,0.0,0.0,1.0,0.0,0.0,0.0,1.0,-0.426829278469,1.34146344662,-0.243902444839,1.0,0.0,0.0,0.0,1.0,0.0,0.0,0.0,1.0,-0.502782348633,0.0335188255255,10.405200415,1.0,0.0,0.0,0.0,1.0,0.0,0.0,0.0,1.0
1491900036593743499,548,1491900036591171988,,7.68641138077,-0.943236231804,90.0,0.000990999978967,1.0,0.0,0.0,0.0,1.0,0.0,0.0,0.0,1.0,-0.609756112099,2.01219511032,0.0,1.0,0.0,0.0,0.0,1.0,0.0,0.0,0.0,1.0,-0.541089611728,0.00478840332031,10.3237975586,1.0,0.0,0.0,0.0,1.0,0.0,0.0,0.0,1.0
1491900036617234387,549,1491900036611767876,,7.67229318619,-0.941162288189,90.0,0.00096700002905,1.0,0.0,0.0,0.0,1.0,0.0,0.0,0.0,1.0,-0.365853667259,2.68292689323,-0.243902444839,1.0,0.0,0.0,0.0,1.0,0.0,0.0,0.0,1.0,-0.483628735352,0.0622492431641,10.2471831055,1.0,0.0,0.0,0.0,1.0,0.0,0.0,0.0,1.0
1491900036639830380,550,1491900036633515588,,7.66719484329,-0.941392838955,90.0,0.000967999978457,1.0,0.0,0.0,0.0,1.0,0.0,0.0,0.0,1.0,-0.365853667259,2.80487799644,-0.12195122242,1.0,0.0,0.0,0.0,1.0,0.0,0.0,0.0,1.0,-0.541089611728,0.0143652099609,10.2136642822,1.0,0.0,0.0,0.0,1.0,0.0,0.0,0.0,1.0
1491900036658844862,551,1491900036653852674,,7.67257547379,-0.942937910557,90.0,0.00116900005378,1.0,0.0,0.0,0.0,1.0,0.0,0.0,0.0,1.0,-0.548780500889,2.86585378647,-0.18292683363,1.0,0.0,0.0,0.0,1.0,0.0,0.0,0.0,1.0,-0.574608398438,-0.0287304199219,10.2184526855,1.0,0.0,0.0,0.0,1.0,0.0,0.0,0.0,1.0
1491900036679126219,552,1491900036674792364,,7.68323755264,-0.944521665573,90.0,0.00137700000778,1.0,0.0,0.0,0.0,1.0,0.0,0.0,0.0,1.0,-0.365853667259,2.74390244484,-0.365853667259,1.0,0.0,0.0,0.0,1.0,0.0,0.0,0.0,1.0,-0.632069238281,0.0383072265625,10.180145459,1.0,0.0,0.0,0.0,1.0,0.0,0.0,0.0,1.0
1491900036697793149,553,1491900036696080388,,7.69469594955,-0.945677101612,90.0,0.00104899995495,1.0,0.0,0.0,0.0,1.0,0.0,0.0,0.0,1.0,-0.609756112099,2.31707310677,-0.426829278469,1.0,0.0,0.0,0.0,1.0,0.0,0.0,0.0,1.0,-0.550666381836,-0.0478840332031,10.3477395752,1.0,0.0,0.0,0.0,1.0,0.0,0.0,0.0,1.0
1491900036719964559,554,1491900036717151173,,7.70616722107,-0.94289535284,90.0,0.00108399998862,1.0,0.0,0.0,0.0,1.0,0.0,0.0,0.0,1.0,-0.365853667259,2.19512200356,-0.12195122242,1.0,0.0,0.0,0.0,1.0,0.0,0.0,0.0,1.0,-0.541089611728,-0.0861912597656,10.2711251221,1.0,0.0,0.0,0.0,1.0,0.0,0.0,0.0,1.0
1491900036740759614,555,1491900036738192895,,7.70921468735,-0.946198880672,90.0,0.00114700000267,1.0,0.0,0.0,0.0,1.0,0.0,0.0,0.0,1.0,-0.304878056049,2.19512200356,-0.12195122242,1.0,0.0,0.0,0.0,1.0,0.0,0.0,0.0,1.0,-0.483628735352,0.0335188255255,10.2376062988,1.0,0.0,0.0,0.0,1.0,0.0,0.0,0.0,1.0
1491900036763437846,556,1491900036759301179,,7.70926618576,-0.946967661381,90.0,0.00116800004616,1.0,0.0,0.0,0.0,1.0,0.0,0.0,0.0,1.0,-0.548780500889,2.13414645195,-0.304878056049,1.0,0.0,0.0,0.0,1.0,0.0,0.0,0.0,1.0,-0.440533105469,0.0957680664062,10.2040874756,1.0,0.0,0.0,0.0,1.0,0.0,0.0,0.0,1.0
1491900036782694359,557,1491900036780406703,,7.70451116562,-0.949125826359,90.0,0.00108399998862,1.0,0.0,0.0,0.0,1.0,0.0,0.0,0.0,1.0,-0.426829278469,1.76829278469,-0.304878056049,1.0,0.0,0.0,0.0,1.0,0.0,0.0,0.0,1.0,-0.474051928711,-0.0239420166016,10.3860468018,1.0,0.0,0.0,0.0,1.0,0.0,0.0,0.0,1.0
1491900036804598685,558,1491900036801843685,,7.69354486465,-0.946091175079,90.0,0.00115599995479,1.0,0.0,0.0,0.0,1.0,0.0,0.0,0.0,1.0,-0.487804889679,1.95121955872,-0.365853667259,1.0,0.0,0.0,0.0,1.0,0.0,0.0,0.0,1.0,-0.507570751953,0.0191536132812,10.1705686523,1.0,0.0,0.0,0.0,1.0,0.0,0.0,0.0,1.0
1491900036825902126,559,1491900036823421397,,7.67908525467,-0.943704128265,90.0,0.000982000026852,1.0,0.0,0.0,0.0,1.0,0.0,0.0,0.0,1.0,-0.365853667259,2.19512200356,-0.12195122242,1.0,0.0,0.0,0.0,1.0,0.0,0.0,0.0,1.0,-0.579396801758,0.0478840332031,10.2902787354,1.0,0.0,0.0,0.0,1.0,0.0,0.0,0.0,1.0
1491900036847400098,560,1491900036844474473,,7.66828107834,-0.941155552864,90.0,0.00108299998101,1.0,0.0,0.0,0.0,1.0,0.0,0.0,0.0,1.0,-0.487804889679,2.37804889679,-0.243902444839,1.0,0.0,0.0,0.0,1.0,0.0,0.0,0.0,1.0,-0.560243188477,0.00478840332031,10.2615483154,1.0,0.0,0.0,0.0,1.0,0.0,0.0,0.0,1.0
1491900036867543955,561,1491900036865058694,,7.66550445557,-0.942368805408,90.0,0.000992999994196,1.0,0.0,0.0,0.0,1.0,0.0,0.0,0.0,1.0,-0.304878056049,2.74390244484,-0.426829278469,1.0,0.0,0.0,0.0,1.0,0.0,0.0,0.0,1.0,-0.569819995117,0.119710083008,10.3046439453,1.0,0.0,0.0,0.0,1.0,0.0,0.0,0.0,1.0
1491900036889571823,562,1491900036886333802,,7.67471837997,-0.944383740425,90.0,0.00112200004514,1.0,0.0,0.0,0.0,1.0,0.0,0.0,0.0,1.0,-0.609756112099,3.10975623131,-0.731707334518,1.0,0.0,0.0,0.0,1.0,0.0,0.0,0.0,1.0,-0.569819995117,0.0335188255255,10.314220752,1.0,0.0,0.0,0.0,1.0,0.0,0.0,0.0,1.0
1491900036908448440,563,1491900036906845680,,7.69461631775,-0.948666512966,90.0,0.00096700002905,1.0,0.0,0.0,0.0,1.0,0.0,0.0,0.0,1.0,-0.609756112099,2.98780488968,-0.548780500889,1.0,0.0,0.0,0.0,1.0,0.0,0.0,0.0,1.0,-0.627280834961,-0.0622492431641,10.3190091553,1.0,0.0,0.0,0.0,1.0,0.0,0.0,0.0,1.0
1491900036930250995,564,1491900036927383651,,7.71606397629,-0.952726721764,90.0,0.000977999996394,1.0,0.0,0.0,0.0,1.0,0.0,0.0,0.0,1.0,-0.487804889679,2.74390244484,-0.426829278469,1.0,0.0,0.0,0.0,1.0,0.0,0.0,0.0,1.0,-0.675164868164,0.0143652099609,10.2136642822,1.0,0.0,0.0,0.0,1.0,0.0,0.0,0.0,1.0
1491900036950643915,565,1491900036948750217,,7.72949695587,-0.954094529152,90.0,0.00101400003769,1.0,0.0,0.0,0.0,1.0,0.0,0.0,0.0,1.0,-0.548780500889,2.19512200356,-0.426829278469,1.0,0.0,0.0,0.0,1.0,0.0,0.0,0.0,1.0,-0.612915625,0.0909796630859,10.180145459,1.0,0.0,0.0,0.0,1.0,0.0,0.0,0.0,1.0
1491900036980302253,566,1491900036977532200,,7.74484586716,-0.950218856335,90.0,0.000991999986582,1.0,0.0,0.0,0.0,1.0,0.0,0.0,0.0,1.0,-0.670731723309,1.8902438879,-0.0609756112099,1.0,0.0,0.0,0.0,1.0,0.0,0.0,0.0,1.0,-0.565031591797,0.0622492431641,10.3381627686,1.0,0.0,0.0,0.0,1.0,0.0,0.0,0.0,1.0
1491900036992104338,567,1491900036990933921,,7.7395029068,-0.946752369404,90.0,0.00100299995393,1.0,0.0,0.0,0.0,1.0,0.0,0.0,0.0,1.0,-0.426829278469,1.76829278469,-0.18292683363,1.0,0.0,0.0,0.0,1.0,0.0,0.0,0.0,1.0,-0.574608398438,0.0143652099609,10.2423947021,1.0,0.0,0.0,0.0,1.0,0.0,0.0,0.0,1.0
1491900037013216685,568,1491900037011901111,,7.72388219833,-0.939664721489,90.0,0.000990999978967,1.0,0.0,0.0,0.0,1.0,0.0,0.0,0.0,1.0,-0.243902444839,1.8902438879,-0.0609756112099,1.0,0.0,0.0,0.0,1.0,0.0,0.0,0.0,1.0,-0.622492431641,0.0430956298828,10.1705686523,1.0,0.0,0.0,0.0,1.0,0.0,0.0,0.0,1.0
1491900037034432209,569,1491900037033095490,,7.70563650131,-0.939607858658,90.0,0.000966000021435,1.0,0.0,0.0,0.0,1.0,0.0,0.0,0.0,1.0,-0.487804889679,1.8902438879,0.12195122242,1.0,0.0,0.0,0.0,1.0,0.0,0.0,0.0,1.0,-0.517147558594,0.0287304199219,10.165780249,1.0,0.0,0.0,0.0,1.0,0.0,0.0,0.0,1.0
1491900037063973046,570,1491900037061927838,,7.68572664261,-0.940808296204,90.0,0.00860099960119,1.0,0.0,0.0,0.0,1.0,0.0,0.0,0.0,1.0,-0.731707334518,2.5,-0.243902444839,1.0,0.0,0.0,0.0,1.0,0.0,0.0,0.0,1.0,-0.469263525391,0.0,10.2567599121,1.0,0.0,0.0,0.0,1.0,0.0,0.0,0.0,1.0
1491900037084653987,571,1491900037083421226,,7.67822885513,-0.941150486469,90.0,0.00205200002529,1.0,0.0,0.0,0.0,1.0,0.0,0.0,0.0,1.0,-0.609756112099,3.04878044128,-0.304878056049,1.0,0.0,0.0,0.0,1.0,0.0,0.0,0.0,1.0,-0.569819995117,0.067037651051,10.1035310059,1.0,0.0,0.0,0.0,1.0,0.0,0.0,0.0,1.0
1491900037105660292,572,1491900037103656333,,7.6864490509,-0.946227550507,90.0,0.00116099999286,1.0,0.0,0.0,0.0,1.0,0.0,0.0,0.0,1.0,-0.731707334518,3.35365867615,-0.426829278469,1.0,0.0,0.0,0.0,1.0,0.0,0.0,0.0,1.0,-0.60812722168,0.00957680664062,10.2184526855,1.0,0.0,0.0,0.0,1.0,0.0,0.0,0.0,1.0
1491900037126177847,573,1491900037124753263,,7.70388746262,-0.948995828629,90.0,0.00107600004412,1.0,0.0,0.0,0.0,1.0,0.0,0.0,0.0,1.0,-0.609756112099,3.29268312454,-0.609756112099,1.0,0.0,0.0,0.0,1.0,0.0,0.0,0.0,1.0,-0.713472094727,-0.0383072265625,10.2280294922,1.0,0.0,0.0,0.0,1.0,0.0,0.0,0.0,1.0
1491900037148227433,574,1491900037146246860,,7.72639608383,-0.953282833099,90.0,0.00149900000542,1.0,0.0,0.0,0.0,1.0,0.0,0.0,0.0,1.0,-0.792682945728,2.98780488968,-0.426829278469,1.0,0.0,0.0,0.0,1.0,0.0,0.0,0.0,1.0,-0.694318481445,0.0143652099609,10.165780249,1.0,0.0,0.0,0.0,1.0,0.0,0.0,0.0,1.0
1491900037169757697,575,1491900037167875457,,7.74810743332,-0.954099535942,90.0,0.00101300003007,1.0,0.0,0.0,0.0,1.0,0.0,0.0,0.0,1.0,-0.731707334518,2.68292689323,-0.365853667259,1.0,0.0,0.0,0.0,1.0,0.0,0.0,0.0,1.0,-0.632069238281,0.0574608398438,10.2615483154,1.0,0.0,0.0,0.0,1.0,0.0,0.0,0.0,1.0
1491900037190825773,576,1491900037188637491,,7.75671958923,-0.956604123116,90.0,0.00116999994498,1.0,0.0,0.0,0.0,1.0,0.0,0.0,0.0,1.0,-0.426829278469,2.01219511032,0.0609756112099,1.0,0.0,0.0,0.0,1.0,0.0,0.0,0.0,1.0,-0.699106884766,0.15801730957,10.3046439453,1.0,0.0,0.0,0.0,1.0,0.0,0.0,0.0,1.0
1491900037212035464,577,1491900037209920724,,7.75161075592,-0.95740711689,90.0,0.00101000000723,1.0,0.0,0.0,0.0,1.0,0.0,0.0,0.0,1.0,-0.243902444839,1.70731711388,0.12195122242,1.0,0.0,0.0,0.0,1.0,0.0,0.0,0.0,1.0,-0.526724328702,0.0287304199219,10.5105452881,1.0,0.0,0.0,0.0,1.0,0.0,0.0,0.0,1.0
1491900037235794529,578,1491900037230979268,,7.73986148834,-0.956277430058,90.0,0.00128299999051,1.0,0.0,0.0,0.0,1.0,0.0,0.0,0.0,1.0,-0.548780500889,1.58536589146,0.0,1.0,0.0,0.0,0.0,1.0,0.0,0.0,0.0,1.0,-0.526724328702,0.0526724365234,10.3285859619,1.0,0.0,0.0,0.0,1.0,0.0,0.0,0.0,1.0
1491900037253752397,579,1491900037252632917,,7.72661399841,-0.9529774189,90.0,0.00158499996178,1.0,0.0,0.0,0.0,1.0,0.0,0.0,0.0,1.0,-0.792682945728,1.64634156227,0.0,1.0,0.0,0.0,0.0,1.0,0.0,0.0,0.0,1.0,-0.593762048251,0.0335188255255,10.1514150391,1.0,0.0,0.0,0.0,1.0,0.0,0.0,0.0,1.0
1491900037277132973,580,1491900037274203493,,7.70319223404,-0.951293706894,90.0,0.00108600000385,1.0,0.0,0.0,0.0,1.0,0.0,0.0,0.0,1.0,-0.426829278469,1.8292683363,-0.0609756112099,1.0,0.0,0.0,0.0,1.0,0.0,0.0,0.0,1.0,-0.646434448242,0.076614453125,10.2088758789,1.0,0.0,0.0,0.0,1.0,0.0,0.0,0.0,1.0
1491900037296532507,581,1491900037294793496,,7.68722724915,-0.95091176033,90.0,0.00106499996036,1.0,0.0,0.0,0.0,1.0,0.0,0.0,0.0,1.0,-0.609756112099,1.8902438879,-0.12195122242,1.0,0.0,0.0,0.0,1.0,0.0,0.0,0.0,1.0,-0.560243188477,0.0,10.1418382324,1.0,0.0,0.0,0.0,1.0,0.0,0.0,0.0,1.0
1491900037318354698,582,1491900037316133500,,7.67755079269,-0.948154747486,90.0,0.00111700000707,1.0,0.0,0.0,0.0,1.0,0.0,0.0,0.0,1.0,-0.426829278469,2.37804889679,-0.426829278469,1.0,0.0,0.0,0.0,1.0,0.0,0.0,0.0,1.0,-0.426167895508,0.0430956298828,10.2136642822,1.0,0.0,0.0,0.0,1.0,0.0,0.0,0.0,1.0
1491900037338337722,583,1491900037336876784,,7.68028593063,-0.949554145336,90.0,0.00107700005174,1.0,0.0,0.0,0.0,1.0,0.0,0.0,0.0,1.0,-0.426829278469,2.74390244484,-0.426829278469,1.0,0.0,0.0,0.0,1.0,0.0,0.0,0.0,1.0,-0.45489831543,0.0191536132812,10.3046439453,1.0,0.0,0.0,0.0,1.0,0.0,0.0,0.0,1.0
1491900037359287464,584,1491900037358117985,,7.69458198547,-0.956107497215,90.0,0.00127600005362,1.0,0.0,0.0,0.0,1.0,0.0,0.0,0.0,1.0,-0.365853667259,2.80487799644,-0.487804889679,1.0,0.0,0.0,0.0,1.0,0.0,0.0,0.0,1.0,-0.483628735352,-0.0143652099609,10.2807019287,1.0,0.0,0.0,0.0,1.0,0.0,0.0,0.0,1.0
1491900037380971165,585,1491900037379300280,,7.70666599274,-0.957646250725,90.0,0.00121200003196,1.0,0.0,0.0,0.0,1.0,0.0,0.0,0.0,1.0,-0.609756112099,2.37804889679,-0.548780500889,1.0,0.0,0.0,0.0,1.0,0.0,0.0,0.0,1.0,-0.555454785156,0.114921679688,10.2376062988,1.0,0.0,0.0,0.0,1.0,0.0,0.0,0.0,1.0
1491900037401743720,586,1491900037400528720,,7.72165203094,-0.958685278893,90.0,0.00100299995393,1.0,0.0,0.0,0.0,1.0,0.0,0.0,0.0,1.0,-0.609756112099,2.43902444839,-0.487804889679,1.0,0.0,0.0,0.0,1.0,0.0,0.0,0.0,1.0,-0.584185168546,-0.0478840332031,10.3668931885,1.0,0.0,0.0,0.0,1.0,0.0,0.0,0.0,1.0
1491900037423115390,587,1491900037421458307,,7.72629976273,-0.958198845387,90.0,0.00107999995816,1.0,0.0,0.0,0.0,1.0,0.0,0.0,0.0,1.0,-0.0609756112099,2.13414645195,-0.243902444839,1.0,0.0,0.0,0.0,1.0,0.0,0.0,0.0,1.0,-0.541089611728,-0.143652099609,10.2950671387,1.0,0.0,0.0,0.0,1.0,0.0,0.0,0.0,1.0
1491900037443595601,588,1491900037442048414,,7.72682332993,-0.958752274513,90.0,0.00103399995714,1.0,0.0,0.0,0.0,1.0,0.0,0.0,0.0,1.0,-0.670731723309,2.19512200356,-0.304878056049,1.0,0.0,0.0,0.0,1.0,0.0,0.0,0.0,1.0,-0.584185168546,0.0191536132812,10.1370498291,1.0,0.0,0.0,0.0,1.0,0.0,0.0,0.0,1.0
1491900037464226698,589,1491900037462829771,,7.71805238724,-0.959240674973,90.0,0.00105099997018,1.0,0.0,0.0,0.0,1.0,0.0,0.0,0.0,1.0,-0.12195122242,1.95121955872,-0.304878056049,1.0,0.0,0.0,0.0,1.0,0.0,0.0,0.0,1.0,-0.555454785156,0.0478840332031,10.0748005859,1.0,0.0,0.0,0.0,1.0,0.0,0.0,0.0,1.0
1491900037484651962,590,1491900037483230607,,7.70564174652,-0.956973731518,90.0,0.00104799994733,1.0,0.0,0.0,0.0,1.0,0.0,0.0,0.0,1.0,-0.304878056049,1.8292683363,-0.18292683363,1.0,0.0,0.0,0.0,1.0,0.0,0.0,0.0,1.0,-0.61770402832,0.0430956298828,10.1466266357,1.0,0.0,0.0,0.0,1.0,0.0,0.0,0.0,1.0
1491900037505500298,591,1491900037504287121,,7.69409513474,-0.956223547459,90.0,0.00171099998988,1.0,0.0,0.0,0.0,1.0,0.0,0.0,0.0,1.0,-0.487804889679,2.19512200356,-0.18292683363,1.0,0.0,0.0,0.0,1.0,0.0,0.0,0.0,1.0,-0.703895288086,-0.110133276367,10.299855542,1.0,0.0,0.0,0.0,1.0,0.0,0.0,0.0,1.0
1491900037526456082,592,1491900037525229728,,7.68462896347,-0.954173326492,90.0,0.00128299999051,1.0,0.0,0.0,0.0,1.0,0.0,0.0,0.0,1.0,-0.18292683363,2.31707310677,-0.365853667259,1.0,0.0,0.0,0.0,1.0,0.0,0.0,0.0,1.0,-0.517147558594,0.110133276367,10.2471831055,1.0,0.0,0.0,0.0,1.0,0.0,0.0,0.0,1.0
1491900037547438533,593,1491900037546158064,,7.68028926849,-0.955494165421,90.0,0.00118999998085,1.0,0.0,0.0,0.0,1.0,0.0,0.0,0.0,1.0,-0.487804889679,2.68292689323,-0.548780500889,1.0,0.0,0.0,0.0,1.0,0.0,0.0,0.0,1.0,-0.708683691406,0.00478840332031,10.2807019287,1.0,0.0,0.0,0.0,1.0,0.0,0.0,0.0,1.0
1491900037567943380,594,1491900037566624057,,7.68328905106,-0.952076077461,90.0,0.00108199997339,1.0,0.0,0.0,0.0,1.0,0.0,0.0,0.0,1.0,-0.548780500889,2.62195134163,-0.365853667259,1.0,0.0,0.0,0.0,1.0,0.0,0.0,0.0,1.0,-0.517147558594,0.00957680664062,10.0939541992,1.0,0.0,0.0,0.0,1.0,0.0,0.0,0.0,1.0
1491900037588838383,595,1491900037587631820,,7.69205713272,-0.952158689499,90.0,0.00102800002787,1.0,0.0,0.0,0.0,1.0,0.0,0.0,0.0,1.0,-0.487804889679,2.5,-0.426829278469,1.0,0.0,0.0,0.0,1.0,0.0,0.0,0.0,1.0,-0.670376464844,0.0861912597656,10.1226846191,1.0,0.0,0.0,0.0,1.0,0.0,0.0,0.0,1.0
1491900037610315053,596,1491900037609099636,,7.70410013199,-0.951955974102,90.0,0.00105500000063,1.0,0.0,0.0,0.0,1.0,0.0,0.0,0.0,1.0,-0.487804889679,2.5,-0.487804889679,1.0,0.0,0.0,0.0,1.0,0.0,0.0,0.0,1.0,-0.512359155273,0.0335188255255,10.0939541992,1.0,0.0,0.0,0.0,1.0,0.0,0.0,0.0,1.0
1491900037631007920,597,1491900037629777295,,7.7090420723,-0.953390300274,90.0,0.00106000003871,1.0,0.0,0.0,0.0,1.0,0.0,0.0,0.0,1.0,-0.548780500889,2.25609779358,-0.243902444839,1.0,0.0,0.0,0.0,1.0,0.0,0.0,0.0,1.0,-0.497993945312,0.0430956298828,10.3621047852,1.0,0.0,0.0,0.0,1.0,0.0,0.0,0.0,1.0
1491900037651269225,598,1491900037650065215,,7.71548748016,-0.95111310482,90.0,0.00100299995393,1.0,0.0,0.0,0.0,1.0,0.0,0.0,0.0,1.0,-0.609756112099,2.19512200356,-0.304878056049,1.0,0.0,0.0,0.0,1.0,0.0,0.0,0.0,1.0,-0.593762048251,0.0622492431641,10.4482960449,1.0,0.0,0.0,0.0,1.0,0.0,0.0,0.0,1.0
1491900037673632197,599,1491900037670859385,,7.7144985199,-0.949064910412,90.0,0.00138200004585,1.0,0.0,0.0,0.0,1.0,0.0,0.0,0.0,1.0,-0.365853667259,2.25609779358,-0.243902444839,1.0,0.0,0.0,0.0,1.0,0.0,0.0,0.0,1.0,-0.517147558594,0.0861912597656,10.3477395752,1.0,0.0,0.0,0.0,1.0,0.0,0.0,0.0,1.0
1491900037694144388,600,1491900037691211679,,7.71268844604,-0.949118196964,90.0,0.00110800005496,1.0,0.0,0.0,0.0,1.0,0.0,0.0,0.0,1.0,-0.609756112099,2.37804889679,-0.12195122242,1.0,0.0,0.0,0.0,1.0,0.0,0.0,0.0,1.0,-0.627280834961,0.100556469727,10.4387192383,1.0,0.0,0.0,0.0,1.0,0.0,0.0,0.0,1.0
1491900037714554860,601,1491900037711972828,,7.7117638588,-0.949196457863,90.0,0.000965000013821,1.0,0.0,0.0,0.0,1.0,0.0,0.0,0.0,1.0,-0.487804889679,2.43902444839,-0.12195122242,1.0,0.0,0.0,0.0,1.0,0.0,0.0,0.0,1.0,-0.507570751953,0.00478840332031,10.2088758789,1.0,0.0,0.0,0.0,1.0,0.0,0.0,0.0,1.0
1491900037737106165,602,1491900037735622519,,7.70753955841,-0.948225915432,90.0,0.00097499997355,1.0,0.0,0.0,0.0,1.0,0.0,0.0,0.0,1.0,-0.731707334518,2.31707310677,0.18292683363,1.0,0.0,0.0,0.0,1.0,0.0,0.0,0.0,1.0,-0.584185168546,0.0,10.1514150391,1.0,0.0,0.0,0.0,1.0,0.0,0.0,0.0,1.0
1491900037755612209,603,1491900037753206949,,7.70141077042,-0.952550947666,90.0,0.000975999981165,1.0,0.0,0.0,0.0,1.0,0.0,0.0,0.0,1.0,-0.548780500889,2.5,-0.12195122242,1.0,0.0,0.0,0.0,1.0,0.0,0.0,0.0,1.0,-0.541089611728,0.0287304199219,10.3237975586,1.0,0.0,0.0,0.0,1.0,0.0,0.0,0.0,1.0
1491900037775828514,604,1491900037774416639,,7.69394111633,-0.950872182846,90.0,0.00118400005158,1.0,0.0,0.0,0.0,1.0,0.0,0.0,0.0,1.0,-0.670731723309,2.5,-0.0609756112099,1.0,0.0,0.0,0.0,1.0,0.0,0.0,0.0,1.0,-0.641646044922,0.0430956298828,10.1897222656,1.0,0.0,0.0,0.0,1.0,0.0,0.0,0.0,1.0
1491900037798603622,605,1491900037795971278,,7.6931810379,-0.948652982712,90.0,0.00107999995816,1.0,0.0,0.0,0.0,1.0,0.0,0.0,0.0,1.0,-0.609756112099,2.13414645195,-0.18292683363,1.0,0.0,0.0,0.0,1.0,0.0,0.0,0.0,1.0,-0.555454785156,0.0335188255255,10.2423947021,1.0,0.0,0.0,0.0,1.0,0.0,0.0,0.0,1.0
1491900037822029459,606,1491900037818983833,,7.68875646591,-0.944292068481,90.0,0.0038769999519,1.0,0.0,0.0,0.0,1.0,0.0,0.0,0.0,1.0,-0.670731723309,2.43902444839,-0.243902444839,1.0,0.0,0.0,0.0,1.0,0.0,0.0,0.0,1.0,-0.402225878906,0.114921679688,10.3668931885,1.0,0.0,0.0,0.0,1.0,0.0,0.0,0.0,1.0
1491900037843140816,607,1491900037840556649,,7.69490337372,-0.939580976963,90.0,0.00360199995339,1.0,0.0,0.0,0.0,1.0,0.0,0.0,0.0,1.0,-0.609756112099,2.68292689323,-0.731707334518,1.0,0.0,0.0,0.0,1.0,0.0,0.0,0.0,1.0,-0.502782348633,-0.0383072265625,10.2567599121,1.0,0.0,0.0,0.0,1.0,0.0,0.0,0.0,1.0
1491900037865532538,608,1491900037863595767,,7.69885635376,-0.937469184399,90.0,0.00110100000165,1.0,0.0,0.0,0.0,1.0,0.0,0.0,0.0,1.0,-0.426829278469,2.5,-0.243902444839,1.0,0.0,0.0,0.0,1.0,0.0,0.0,0.0,1.0,-0.656011254883,-0.00478840332031,10.3333743652,1.0,0.0,0.0,0.0,1.0,0.0,0.0,0.0,1.0
1491900037885874051,609,1491900037883152593,,7.70646381378,-0.937958478928,90.0,0.00135100004263,1.0,0.0,0.0,0.0,1.0,0.0,0.0,0.0,1.0,-0.487804889679,2.62195134163,-0.426829278469,1.0,0.0,0.0,0.0,1.0,0.0,0.0,0.0,1.0,-0.612915625,0.0143652099609,10.3477395752,1.0,0.0,0.0,0.0,1.0,0.0,0.0,0.0,1.0
1491900037905978325,610,1491900037903643377,,7.71171331406,-0.939214289188,90.0,0.00105500000063,1.0,0.0,0.0,0.0,1.0,0.0,0.0,0.0,1.0,-0.548780500889,2.43902444839,-0.548780500889,1.0,0.0,0.0,0.0,1.0,0.0,0.0,0.0,1.0,-0.603338854892,0.0526724365234,10.2519715088,1.0,0.0,0.0,0.0,1.0,0.0,0.0,0.0,1.0
1491900037926643172,611,1491900037924871192,,7.71619939804,-0.939729452133,90.0,0.00165700004436,1.0,0.0,0.0,0.0,1.0,0.0,0.0,0.0,1.0,-0.548780500889,2.31707310677,-0.243902444839,1.0,0.0,0.0,0.0,1.0,0.0,0.0,0.0,1.0,-0.708683691406,0.0239420166016,10.2471831055,1.0,0.0,0.0,0.0,1.0,0.0,0.0,0.0,1.0
1491900037948201977,612,1491900037945898904,,7.71995306015,-0.940281569958,90.0,0.000987999956124,1.0,0.0,0.0,0.0,1.0,0.0,0.0,0.0,1.0,-0.243902444839,2.43902444839,-0.243902444839,1.0,0.0,0.0,0.0,1.0,0.0,0.0,0.0,1.0,-0.699106884766,0.0335188255255,10.314220752,1.0,0.0,0.0,0.0,1.0,0.0,0.0,0.0,1.0
1491900037971921980,613,1491900037969186459,,7.72181224823,-0.941642105579,90.0,0.00107400002889,1.0,0.0,0.0,0.0,1.0,0.0,0.0,0.0,1.0,-0.609756112099,2.19512200356,-0.426829278469,1.0,0.0,0.0,0.0,1.0,0.0,0.0,0.0,1.0,-0.603338854892,-0.0143652099609,10.2471831055,1.0,0.0,0.0,0.0,1.0,0.0,0.0,0.0,1.0
1491900037988724327,614,1491900037987377816,,7.71865224838,-0.943098425865,90.0,0.00106100004632,1.0,0.0,0.0,0.0,1.0,0.0,0.0,0.0,1.0,-0.304878056049,2.07317066193,-0.243902444839,1.0,0.0,0.0,0.0,1.0,0.0,0.0,0.0,1.0,-0.536301208408,-0.00478840332031,10.2040874756,1.0,0.0,0.0,0.0,1.0,0.0,0.0,0.0,1.0
1491900038010009746,615,1491900038008660892,,7.71981287003,-0.941853702068,90.0,0.00110899994615,1.0,0.0,0.0,0.0,1.0,0.0,0.0,0.0,1.0,-0.243902444839,1.95121955872,-0.12195122242,1.0,0.0,0.0,0.0,1.0,0.0,0.0,0.0,1.0,-0.502782348633,0.124498486328,10.2232410889,1.0,0.0,0.0,0.0,1.0,0.0,0.0,0.0,1.0
1491900038031895010,616,1491900038029545218,,7.71812486649,-0.942650437355,90.0,0.00100399996154,1.0,0.0,0.0,0.0,1.0,0.0,0.0,0.0,1.0,-0.426829278469,2.43902444839,-0.304878056049,1.0,0.0,0.0,0.0,1.0,0.0,0.0,0.0,1.0,-0.430956298828,-0.0430956298828,10.3908352051,1.0,0.0,0.0,0.0,1.0,0.0,0.0,0.0,1.0
1491900038051394648,617,1491900038050121992,,7.72045469284,-0.942307770252,90.0,0.00127899996005,1.0,0.0,0.0,0.0,1.0,0.0,0.0,0.0,1.0,-0.548780500889,2.19512200356,-0.487804889679,1.0,0.0,0.0,0.0,1.0,0.0,0.0,0.0,1.0,-0.430956298828,-0.0478840332031,10.4004120117,1.0,0.0,0.0,0.0,1.0,0.0,0.0,0.0,1.0
1491900038072714651,618,1491900038070955484,,7.71959972382,-0.944077730179,90.0,0.000983000034466,1.0,0.0,0.0,0.0,1.0,0.0,0.0,0.0,1.0,-0.792682945728,2.62195134163,-0.243902444839,1.0,0.0,0.0,0.0,1.0,0.0,0.0,0.0,1.0,-0.541089611728,0.0335188255255,10.3477395752,1.0,0.0,0.0,0.0,1.0,0.0,0.0,0.0,1.0
1491900038093656477,619,1491900038092053977,,7.72401809692,-0.943943738937,90.0,0.00102099997457,1.0,0.0,0.0,0.0,1.0,0.0,0.0,0.0,1.0,-0.548780500889,2.80487799644,-0.304878056049,1.0,0.0,0.0,0.0,1.0,0.0,0.0,0.0,1.0,-0.636857641602,0.067037651051,10.1897222656,1.0,0.0,0.0,0.0,1.0,0.0,0.0,0.0,1.0
1491900038117915075,620,1491900038114856741,,7.72974586487,-0.942813932896,90.0,0.000973000016529,1.0,0.0,0.0,0.0,1.0,0.0,0.0,0.0,1.0,-0.609756112099,2.5,-0.18292683363,1.0,0.0,0.0,0.0,1.0,0.0,0.0,0.0,1.0,-0.646434448242,0.0383072265625,10.2280294922,1.0,0.0,0.0,0.0,1.0,0.0,0.0,0.0,1.0
1491900038142654349,621,1491900038135484660,,7.73284244537,-0.94388538599,90.0,0.00118599995039,1.0,0.0,0.0,0.0,1.0,0.0,0.0,0.0,1.0,-0.548780500889,2.19512200356,-0.243902444839,1.0,0.0,0.0,0.0,1.0,0.0,0.0,0.0,1.0,-0.569819995117,0.00478840332031,10.3333743652,1.0,0.0,0.0,0.0,1.0,0.0,0.0,0.0,1.0
1491900038159510497,622,1491900038157625080,,7.73336219788,-0.945031821728,90.0,0.00105800002348,1.0,0.0,0.0,0.0,1.0,0.0,0.0,0.0,1.0,-0.792682945728,2.07317066193,-0.487804889679,1.0,0.0,0.0,0.0,1.0,0.0,0.0,0.0,1.0,-0.440533105469,-0.067037651051,10.3477395752,1.0,0.0,0.0,0.0,1.0,0.0,0.0,0.0,1.0
1491900038180074302,623,1491900038177694146,,7.72942304611,-0.942933857441,90.0,0.00374000007287,1.0,0.0,0.0,0.0,1.0,0.0,0.0,0.0,1.0,-0.548780500889,2.01219511032,-0.243902444839,1.0,0.0,0.0,0.0,1.0,0.0,0.0,0.0,1.0,-0.440533105469,0.0335188255255,10.2615483154,1.0,0.0,0.0,0.0,1.0,0.0,0.0,0.0,1.0
1491900038203337379,624,1491900038199371545,,7.72945642471,-0.940568208694,90.0,0.00115400005598,1.0,0.0,0.0,0.0,1.0,0.0,0.0,0.0,1.0,-0.670731723309,2.43902444839,-0.731707334518,1.0,0.0,0.0,0.0,1.0,0.0,0.0,0.0,1.0,-0.555454785156,0.0957680664062,10.3285859619,1.0,0.0,0.0,0.0,1.0,0.0,0.0,0.0,1.0
1491900038225543944,625,1491900038220777225,,7.72695636749,-0.941179871559,90.0,0.00188800005708,1.0,0.0,0.0,0.0,1.0,0.0,0.0,0.0,1.0,-0.365853667259,2.62195134163,-0.487804889679,1.0,0.0,0.0,0.0,1.0,0.0,0.0,0.0,1.0,-0.474051928711,-0.0478840332031,10.3668931885,1.0,0.0,0.0,0.0,1.0,0.0,0.0,0.0,1.0
1491900038246108427,626,1491900038242095145,,7.72785043716,-0.941363036633,90.0,0.00117399997544,1.0,0.0,0.0,0.0,1.0,0.0,0.0,0.0,1.0,-0.548780500889,2.74390244484,-0.243902444839,1.0,0.0,0.0,0.0,1.0,0.0,0.0,0.0,1.0,-0.588973571866,0.0143652099609,10.1083194092,1.0,0.0,0.0,0.0,1.0,0.0,0.0,0.0,1.0
1491900038267042492,627,1491900038262611085,,7.72856807709,-0.942442297935,90.0,0.00105399999302,1.0,0.0,0.0,0.0,1.0,0.0,0.0,0.0,1.0,-0.609756112099,2.62195134163,-0.12195122242,1.0,0.0,0.0,0.0,1.0,0.0,0.0,0.0,1.0,-0.612915625,0.00478840332031,10.1705686523,1.0,0.0,0.0,0.0,1.0,0.0,0.0,0.0,1.0
1491900038287370516,628,1491900038284085411,,7.73322534561,-0.945173501968,90.0,0.00139800005127,1.0,0.0,0.0,0.0,1.0,0.0,0.0,0.0,1.0,-0.548780500889,2.43902444839,-0.426829278469,1.0,0.0,0.0,0.0,1.0,0.0,0.0,0.0,1.0,-0.689530078125,-0.0814028564453,10.3908352051,1.0,0.0,0.0,0.0,1.0,0.0,0.0,0.0,1.0
1491900038307148019,629,1491900038304774841,,7.73657417297,-0.942338705063,90.0,0.00116999994498,1.0,0.0,0.0,0.0,1.0,0.0,0.0,0.0,1.0,-0.12195122242,2.25609779358,-0.304878056049,1.0,0.0,0.0,0.0,1.0,0.0,0.0,0.0,1.0,-0.746990917969,0.0430956298828,10.285490332,1.0,0.0,0.0,0.0,1.0,0.0,0.0,0.0,1.0
1491900038328536980,630,1491900038325957813,,7.73634767532,-0.942466139793,90.0,0.000975999981165,1.0,0.0,0.0,0.0,1.0,0.0,0.0,0.0,1.0,-0.304878056049,1.95121955872,-0.426829278469,1.0,0.0,0.0,0.0,1.0,0.0,0.0,0.0,1.0,-0.627280834961,0.0574608398438,10.2423947021,1.0,0.0,0.0,0.0,1.0,0.0,0.0,0.0,1.0
1491900038349731150,631,1491900038346615004,,7.73420810699,-0.942053318024,90.0,0.00098600005731,1.0,0.0,0.0,0.0,1.0,0.0,0.0,0.0,1.0,-0.548780500889,2.43902444839,-0.609756112099,1.0,0.0,0.0,0.0,1.0,0.0,0.0,0.0,1.0,-0.579396801758,0.00478840332031,10.165780249,1.0,0.0,0.0,0.0,1.0,0.0,0.0,0.0,1.0
1491900038370560216,632,1491900038367843132,,7.73299264908,-0.939932405949,90.0,0.000974000024144,1.0,0.0,0.0,0.0,1.0,0.0,0.0,0.0,1.0,-0.548780500889,1.95121955872,-0.365853667259,1.0,0.0,0.0,0.0,1.0,0.0,0.0,0.0,1.0,-0.632069238281,0.0574608398438,10.3094323486,1.0,0.0,0.0,0.0,1.0,0.0,0.0,0.0,1.0
1491900038392878083,633,1491900038390481260,,7.72479009628,-0.941008508205,90.0,0.00218200008385,1.0,0.0,0.0,0.0,1.0,0.0,0.0,0.0,1.0,-0.365853667259,2.07317066193,-0.304878056049,1.0,0.0,0.0,0.0,1.0,0.0,0.0,0.0,1.0,-0.550666381836,-0.0239420166016,10.2471831055,1.0,0.0,0.0,0.0,1.0,0.0,0.0,0.0,1.0
1491900038413520951,634,1491900038411021107,,7.72360706329,-0.941081464291,90.0,0.000967999978457,1.0,0.0,0.0,0.0,1.0,0.0,0.0,0.0,1.0,-0.426829278469,2.43902444839,-0.304878056049,1.0,0.0,0.0,0.0,1.0,0.0,0.0,0.0,1.0,-0.579396801758,-0.00478840332031,10.2615483154,1.0,0.0,0.0,0.0,1.0,0.0,0.0,0.0,1.0
1491900038434380069,635,1491900038431554808,,7.72522974014,-0.941637694836,90.0,0.000977999996394,1.0,0.0,0.0,0.0,1.0,0.0,0.0,0.0,1.0,-0.609756112099,2.56097555161,-0.18292683363,1.0,0.0,0.0,0.0,1.0,0.0,0.0,0.0,1.0,-0.61770402832,0.0478840332031,10.2232410889,1.0,0.0,0.0,0.0,1.0,0.0,0.0,0.0,1.0
1491900038459855072,636,1491900038452900332,,7.72696113586,-0.941947460175,90.0,0.000979000004008,1.0,0.0,0.0,0.0,1.0,0.0,0.0,0.0,1.0,-0.609756112099,2.74390244484,-0.365853667259,1.0,0.0,0.0,0.0,1.0,0.0,0.0,0.0,1.0,-0.632069238281,0.0574608398438,10.1562034424,1.0,0.0,0.0,0.0,1.0,0.0,0.0,0.0,1.0
1491900038480135492,637,1491900038475593512,,7.73098421097,-0.942041993141,90.0,0.0011340000201,1.0,0.0,0.0,0.0,1.0,0.0,0.0,0.0,1.0,-0.243902444839,2.25609779358,-0.243902444839,1.0,0.0,0.0,0.0,1.0,0.0,0.0,0.0,1.0,-0.565031591797,0.0239420166016,10.2759135254,1.0,0.0,0.0,0.0,1.0,0.0,0.0,0.0,1.0
1491900038500930391,638,1491900038496565286,,7.73312711716,-0.944045424461,90.0,0.00267899991013,1.0,0.0,0.0,0.0,1.0,0.0,0.0,0.0,1.0,-0.670731723309,2.01219511032,-0.243902444839,1.0,0.0,0.0,0.0,1.0,0.0,0.0,0.0,1.0,-0.565031591797,-0.0478840332031,10.3333743652,1.0,0.0,0.0,0.0,1.0,0.0,0.0,0.0,1.0
1491900038520775810,639,1491900038517473622,,7.73528289795,-0.942848742008,90.0,0.00145099998917,1.0,0.0,0.0,0.0,1.0,0.0,0.0,0.0,1.0,-0.548780500889,2.01219511032,-0.304878056049,1.0,0.0,0.0,0.0,1.0,0.0,0.0,0.0,1.0,-0.569819995117,-0.0143652099609,10.3573163818,1.0,0.0,0.0,0.0,1.0,0.0,0.0,0.0,1.0
1491900038540776490,640,1491900038538328000,,7.73515176773,-0.943298757076,90.0,0.00121799996123,1.0,0.0,0.0,0.0,1.0,0.0,0.0,0.0,1.0,-0.304878056049,1.8902438879,-0.18292683363,1.0,0.0,0.0,0.0,1.0,0.0,0.0,0.0,1.0,-0.411802685547,0.0526724365234,10.1609918457,1.0,0.0,0.0,0.0,1.0,0.0,0.0,0.0,1.0
1491900038561410035,641,1491900038559099878,,7.73188447952,-0.942255377769,90.0,0.00109899998643,1.0,0.0,0.0,0.0,1.0,0.0,0.0,0.0,1.0,-0.304878056049,2.07317066193,-0.548780500889,1.0,0.0,0.0,0.0,1.0,0.0,0.0,0.0,1.0,-0.45489831543,0.076614453125,10.2328178955,1.0,0.0,0.0,0.0,1.0,0.0,0.0,0.0,1.0
1491900038583099986,642,1491900038580164465,,7.72615814209,-0.939174294472,90.0,0.00427399994805,1.0,0.0,0.0,0.0,1.0,0.0,0.0,0.0,1.0,-0.426829278469,2.07317066193,-0.365853667259,1.0,0.0,0.0,0.0,1.0,0.0,0.0,0.0,1.0,-0.407014282227,0.119710083008,10.3237975586,1.0,0.0,0.0,0.0,1.0,0.0,0.0,0.0,1.0
1491900038603766916,643,1491900038601475197,,7.72335577011,-0.940123975277,90.0,0.00105800002348,1.0,0.0,0.0,0.0,1.0,0.0,0.0,0.0,1.0,-0.487804889679,2.43902444839,-0.487804889679,1.0,0.0,0.0,0.0,1.0,0.0,0.0,0.0,1.0,-0.450109912109,-0.076614453125,10.1897222656,1.0,0.0,0.0,0.0,1.0,0.0,0.0,0.0,1.0
1491900038625861190,644,1491900038622903950,,7.72232866287,-0.940295696259,90.0,0.00116800004616,1.0,0.0,0.0,0.0,1.0,0.0,0.0,0.0,1.0,-0.426829278469,2.74390244484,-0.609756112099,1.0,0.0,0.0,0.0,1.0,0.0,0.0,0.0,1.0,-0.612915625,0.119710083008,10.1322614258,1.0,0.0,0.0,0.0,1.0,0.0,0.0,0.0,1.0
1491900038646444631,645,1491900038644401349,,7.72169685364,-0.938320100307,90.0,0.00145400001202,1.0,0.0,0.0,0.0,1.0,0.0,0.0,0.0,1.0,-0.609756112099,2.5,-0.426829278469,1.0,0.0,0.0,0.0,1.0,0.0,0.0,0.0,1.0,-0.699106884766,-0.0574608398438,10.4626612549,1.0,0.0,0.0,0.0,1.0,0.0,0.0,0.0,1.0
1491900038667493540,646,1491900038665235258,,7.72769451141,-0.936973214149,90.0,0.00144899997395,1.0,0.0,0.0,0.0,1.0,0.0,0.0,0.0,1.0,-0.487804889679,2.62195134163,-0.365853667259,1.0,0.0,0.0,0.0,1.0,0.0,0.0,0.0,1.0,-0.718260498047,0.0909796630859,10.1466266357,1.0,0.0,0.0,0.0,1.0,0.0,0.0,0.0,1.0
1491900038688728335,647,1491900038686446616,,7.73094034195,-0.936368525028,90.0,0.00122700002976,1.0,0.0,0.0,0.0,1.0,0.0,0.0,0.0,1.0,-0.670731723309,2.62195134163,-0.426829278469,1.0,0.0,0.0,0.0,1.0,0.0,0.0,0.0,1.0,-0.61770402832,0.0335188255255,10.2184526855,1.0,0.0,0.0,0.0,1.0,0.0,0.0,0.0,1.0
1491900038708956515,648,1491900038707225265,,7.73628759384,-0.937623143196,90.0,0.0010229999898,1.0,0.0,0.0,0.0,1.0,0.0,0.0,0.0,1.0,-0.670731723309,2.31707310677,-0.12195122242,1.0,0.0,0.0,0.0,1.0,0.0,0.0,0.0,1.0,-0.684741674805,0.00957680664062,10.3285859619,1.0,0.0,0.0,0.0,1.0,0.0,0.0,0.0,1.0
1491900038730778393,649,1491900038728316518,,7.73764801025,-0.939178228378,90.0,0.00118300004397,1.0,0.0,0.0,0.0,1.0,0.0,0.0,0.0,1.0,-0.487804889679,2.13414645195,-0.243902444839,1.0,0.0,0.0,0.0,1.0,0.0,0.0,0.0,1.0,-0.675164868164,0.15322890625,10.3333743652,1.0,0.0,0.0,0.0,1.0,0.0,0.0,0.0,1.0
1491900038751249229,650,1491900038749054489,,7.73661231995,-0.938856184483,90.0,0.00110999995377,1.0,0.0,0.0,0.0,1.0,0.0,0.0,0.0,1.0,-0.426829278469,2.01219511032,-0.18292683363,1.0,0.0,0.0,0.0,1.0,0.0,0.0,0.0,1.0,-0.497993945312,0.0957680664062,10.1897222656,1.0,0.0,0.0,0.0,1.0,0.0,0.0,0.0,1.0
1491900038771774805,651,1491900038770246055,,7.73385572433,-0.93833899498,90.0,0.0010150000453,1.0,0.0,0.0,0.0,1.0,0.0,0.0,0.0,1.0,-0.487804889679,1.8292683363,-0.18292683363,1.0,0.0,0.0,0.0,1.0,0.0,0.0,0.0,1.0,-0.507570751953,0.0574608398438,10.4578728516,1.0,0.0,0.0,0.0,1.0,0.0,0.0,0.0,1.0
1491900038795407205,652,1491900038791818714,,7.7250828743,-0.938576936722,90.0,0.00118499994278,1.0,0.0,0.0,0.0,1.0,0.0,0.0,0.0,1.0,-0.426829278469,2.31707310677,-0.365853667259,1.0,0.0,0.0,0.0,1.0,0.0,0.0,0.0,1.0,-0.579396801758,0.0287304199219,10.1035310059,1.0,0.0,0.0,0.0,1.0,0.0,0.0,0.0,1.0
1491900038818791114,653,1491900038815446843,,7.71651792526,-0.93954706192,90.0,0.000987999956124,1.0,0.0,0.0,0.0,1.0,0.0,0.0,0.0,1.0,-0.670731723309,1.95121955872,0.0609756112099,1.0,0.0,0.0,0.0,1.0,0.0,0.0,0.0,1.0,-0.588973571866,0.0,10.2902787354,1.0,0.0,0.0,0.0,1.0,0.0,0.0,0.0,1.0
1491900038838884190,654,1491900038836737575,,7.70976352692,-0.940003752708,90.0,0.000967999978457,1.0,0.0,0.0,0.0,1.0,0.0,0.0,0.0,1.0,-0.548780500889,2.13414645195,-0.426829278469,1.0,0.0,0.0,0.0,1.0,0.0,0.0,0.0,1.0,-0.502782348633,0.0430956298828,10.165780249,1.0,0.0,0.0,0.0,1.0,0.0,0.0,0.0,1.0
1491900038859658099,655,1491900038857596224,,7.70793437958,-0.941691637039,90.0,0.00406799977645,1.0,0.0,0.0,0.0,1.0,0.0,0.0,0.0,1.0,-0.426829278469,2.31707310677,-0.304878056049,1.0,0.0,0.0,0.0,1.0,0.0,0.0,0.0,1.0,-0.555454785156,-0.00478840332031,10.180145459,1.0,0.0,0.0,0.0,1.0,0.0,0.0,0.0,1.0
1491900038882559873,656,1491900038879856383,,7.70952796936,-0.940236151218,90.0,0.00199900008738,1.0,0.0,0.0,0.0,1.0,0.0,0.0,0.0,1.0,-0.487804889679,2.62195134163,-0.609756112099,1.0,0.0,0.0,0.0,1.0,0.0,0.0,0.0,1.0,-0.45968671875,0.0861912597656,10.3429511719,1.0,0.0,0.0,0.0,1.0,0.0,0.0,0.0,1.0
1491900038902241491,657,1491900038900341491,,7.71148300171,-0.933309137821,90.0,0.00114499998745,1.0,0.0,0.0,0.0,1.0,0.0,0.0,0.0,1.0,-0.426829278469,2.62195134163,-0.548780500889,1.0,0.0,0.0,0.0,1.0,0.0,0.0,0.0,1.0,-0.435744702148,-0.0287304199219,10.2711251221,1.0,0.0,0.0,0.0,1.0,0.0,0.0,0.0,1.0
1491900038925448890,658,1491900038921257014,,7.71188545227,-0.927853226662,90.0,0.00153100001626,1.0,0.0,0.0,0.0,1.0,0.0,0.0,0.0,1.0,-0.426829278469,2.56097555161,-0.487804889679,1.0,0.0,0.0,0.0,1.0,0.0,0.0,0.0,1.0,-0.46447512207,-0.0526724365234,10.2376062988,1.0,0.0,0.0,0.0,1.0,0.0,0.0,0.0,1.0
1491900038946639362,659,1491900038942705091,,7.71618127823,-0.929046928883,90.0,0.000998000032268,1.0,0.0,0.0,0.0,1.0,0.0,0.0,0.0,1.0,-0.609756112099,2.5,-0.365853667259,1.0,0.0,0.0,0.0,1.0,0.0,0.0,0.0,1.0,-0.718260498047,0.124498486328,10.1897222656,1.0,0.0,0.0,0.0,1.0,0.0,0.0,0.0,1.0
1491900038966591969,660,1491900038965010979,,7.72661590576,-0.924434423447,90.0,0.00680600013584,1.0,0.0,0.0,0.0,1.0,0.0,0.0,0.0,1.0,-0.304878056049,2.37804889679,-0.609756112099,1.0,0.0,0.0,0.0,1.0,0.0,0.0,0.0,1.0,-0.723048901367,0.114921679688,10.2184526855,1.0,0.0,0.0,0.0,1.0,0.0,0.0,0.0,1.0
1491900038989021191,661,1491900038985559524,,7.72682094574,-0.926314949989,90.0,0.00101200002246,1.0,0.0,0.0,0.0,1.0,0.0,0.0,0.0,1.0,-0.0609756112099,2.25609779358,-0.304878056049,1.0,0.0,0.0,0.0,1.0,0.0,0.0,0.0,1.0,-0.699106884766,0.0239420166016,10.0891657959,1.0,0.0,0.0,0.0,1.0,0.0,0.0,0.0,1.0
1491900039009117965,662,1491900039005950673,,7.72703266144,-0.925942778587,90.0,0.00105700001586,1.0,0.0,0.0,0.0,1.0,0.0,0.0,0.0,1.0,-0.18292683363,2.31707310677,-0.426829278469,1.0,0.0,0.0,0.0,1.0,0.0,0.0,0.0,1.0,-0.632069238281,0.076614453125,10.2519715088,1.0,0.0,0.0,0.0,1.0,0.0,0.0,0.0,1.0
1491900039028749166,663,1491900039026819113,,7.72392511368,-0.924420118332,90.0,0.00101400003769,1.0,0.0,0.0,0.0,1.0,0.0,0.0,0.0,1.0,-0.548780500889,2.25609779358,-0.243902444839,1.0,0.0,0.0,0.0,1.0,0.0,0.0,0.0,1.0,-0.603338854892,-0.0335188255255,10.2232410889,1.0,0.0,0.0,0.0,1.0,0.0,0.0,0.0,1.0
1491900039051240054,664,1491900039048174793,,7.72015476227,-0.92321896553,90.0,0.00101400003769,1.0,0.0,0.0,0.0,1.0,0.0,0.0,0.0,1.0,-0.548780500889,2.13414645195,-0.426829278469,1.0,0.0,0.0,0.0,1.0,0.0,0.0,0.0,1.0,-0.574608398438,0.0191536132812,10.3285859619,1.0,0.0,0.0,0.0,1.0,0.0,0.0,0.0,1.0
1491900039071942609,665,1491900039069080265,,7.71774578094,-0.924118340015,90.0,0.00101000000723,1.0,0.0,0.0,0.0,1.0,0.0,0.0,0.0,1.0,-0.426829278469,2.25609779358,-0.243902444839,1.0,0.0,0.0,0.0,1.0,0.0,0.0,0.0,1.0,-0.526724328702,0.105344873047,10.2088758789,1.0,0.0,0.0,0.0,1.0,0.0,0.0,0.0,1.0
1491900039095602613,666,1491900039090205581,,7.71857213974,-0.923357546329,90.0,0.00110300001688,1.0,0.0,0.0,0.0,1.0,0.0,0.0,0.0,1.0,-0.426829278469,2.31707310677,-0.365853667259,1.0,0.0,0.0,0.0,1.0,0.0,0.0,0.0,1.0,-0.45489831543,0.00478840332031,10.4243540283,1.0,0.0,0.0,0.0,1.0,0.0,0.0,0.0,1.0
1491900039115600793,667,1491900039111357042,,7.72197294235,-0.925438761711,90.0,0.00101300003007,1.0,0.0,0.0,0.0,1.0,0.0,0.0,0.0,1.0,-0.609756112099,2.62195134163,-0.304878056049,1.0,0.0,0.0,0.0,1.0,0.0,0.0,0.0,1.0,-0.622492431641,-0.0574608398438,10.3477395752,1.0,0.0,0.0,0.0,1.0,0.0,0.0,0.0,1.0
1491900039137558036,668,1491900039132072566,,7.7273516655,-0.926804959774,90.0,0.000968999986071,1.0,0.0,0.0,0.0,1.0,0.0,0.0,0.0,1.0,-0.609756112099,2.62195134163,-0.18292683363,1.0,0.0,0.0,0.0,1.0,0.0,0.0,0.0,1.0,-0.632069238281,-0.0143652099609,10.0125513428,1.0,0.0,0.0,0.0,1.0,0.0,0.0,0.0,1.0
1491900039156999549,669,1491900039152724236,,7.72965812683,-0.927563667297,90.0,0.000967999978457,1.0,0.0,0.0,0.0,1.0,0.0,0.0,0.0,1.0,-0.548780500889,2.68292689323,-0.0609756112099,1.0,0.0,0.0,0.0,1.0,0.0,0.0,0.0,1.0,-0.656011254883,0.0861912597656,10.165780249,1.0,0.0,0.0,0.0,1.0,0.0,0.0,0.0,1.0
1491900039178542104,670,1491900039174275645,,7.73029232025,-0.928052783012,90.0,0.000975999981165,1.0,0.0,0.0,0.0,1.0,0.0,0.0,0.0,1.0,-0.609756112099,2.37804889679,-0.243902444839,1.0,0.0,0.0,0.0,1.0,0.0,0.0,0.0,1.0,-0.612915625,0.0239420166016,10.1226846191,1.0,0.0,0.0,0.0,1.0,0.0,0.0,0.0,1.0
1491900039199110492,671,1491900039196444502,,7.72698307037,-0.926666498184,90.0,0.00129199994262,1.0,0.0,0.0,0.0,1.0,0.0,0.0,0.0,1.0,-0.731707334518,2.25609779358,-0.304878056049,1.0,0.0,0.0,0.0,1.0,0.0,0.0,0.0,1.0,-0.512359155273,-0.0287304199219,10.2232410889,1.0,0.0,0.0,0.0,1.0,0.0,0.0,0.0,1.0
1491900039220795339,672,1491900039217840339,,7.72815799713,-0.92657148838,90.0,0.00109399994835,1.0,0.0,0.0,0.0,1.0,0.0,0.0,0.0,1.0,-0.487804889679,2.25609779358,-0.0609756112099,1.0,0.0,0.0,0.0,1.0,0.0,0.0,0.0,1.0,-0.536301208408,0.0239420166016,10.3908352051,1.0,0.0,0.0,0.0,1.0,0.0,0.0,0.0,1.0
1491900039240693103,673,1491900039238323988,,7.7273182869,-0.924798369408,90.0,0.00112399994396,1.0,0.0,0.0,0.0,1.0,0.0,0.0,0.0,1.0,-0.548780500889,2.31707310677,-0.304878056049,1.0,0.0,0.0,0.0,1.0,0.0,0.0,0.0,1.0,-0.478840332031,0.00957680664062,10.2711251221,1.0,0.0,0.0,0.0,1.0,0.0,0.0,0.0,1.0
1491900039264453471,674,1491900039259840658,,7.72727489471,-0.92827039957,90.0,0.00120599998627,1.0,0.0,0.0,0.0,1.0,0.0,0.0,0.0,1.0,-0.426829278469,2.62195134163,-0.609756112099,1.0,0.0,0.0,0.0,1.0,0.0,0.0,0.0,1.0,-0.521935925381,0.0526724365234,10.2615483154,1.0,0.0,0.0,0.0,1.0,0.0,0.0,0.0,1.0
1491900039285062797,675,1491900039280727171,,7.72959804535,-0.930705010891,90.0,0.00179000000935,1.0,0.0,0.0,0.0,1.0,0.0,0.0,0.0,1.0,-0.609756112099,2.37804889679,-0.548780500889,1.0,0.0,0.0,0.0,1.0,0.0,0.0,0.0,1.0,-0.46447512207,0.0383072265625,10.3956236084,1.0,0.0,0.0,0.0,1.0,0.0,0.0,0.0,1.0
1491900039305441498,676,1491900039301452434,,7.73569726944,-0.931857943535,90.0,0.00106100004632,1.0,0.0,0.0,0.0,1.0,0.0,0.0,0.0,1.0,-0.365853667259,2.5,-0.365853667259,1.0,0.0,0.0,0.0,1.0,0.0,0.0,0.0,1.0,-0.541089611728,-0.138863696289,10.2615483154,1.0,0.0,0.0,0.0,1.0,0.0,0.0,0.0,1.0
1491900039327227751,677,1491900039322904521,,7.74070215225,-0.933267295361,90.0,0.0010000000475,1.0,0.0,0.0,0.0,1.0,0.0,0.0,0.0,1.0,-0.548780500889,2.74390244484,-0.243902444839,1.0,0.0,0.0,0.0,1.0,0.0,0.0,0.0,1.0,-0.598550451572,0.0,10.1131078125,1.0,0.0,0.0,0.0,1.0,0.0,0.0,0.0,1.0
1491900039347402181,678,1491900039343988951,,7.74407482147,-0.935821056366,90.0,0.00102700002026,1.0,0.0,0.0,0.0,1.0,0.0,0.0,0.0,1.0,-0.487804889679,2.5,-0.243902444839,1.0,0.0,0.0,0.0,1.0,0.0,0.0,0.0,1.0,-0.61770402832,-0.0383072265625,10.4482960449,1.0,0.0,0.0,0.0,1.0,0.0,0.0,0.0,1.0
1491900039368473382,679,1491900039364937808,,7.74601268768,-0.937478542328,90.0,0.00102399999741,1.0,0.0,0.0,0.0,1.0,0.0,0.0,0.0,1.0,-0.365853667259,2.01219511032,-0.18292683363,1.0,0.0,0.0,0.0,1.0,0.0,0.0,0.0,1.0,-0.679953271484,-0.00478840332031,10.2615483154,1.0,0.0,0.0,0.0,1.0,0.0,0.0,0.0,1.0
1491900039390670468,680,1491900039385539582,,7.7394695282,-0.937801301479,90.0,0.00098600005731,1.0,0.0,0.0,0.0,1.0,0.0,0.0,0.0,1.0,-0.548780500889,1.8902438879,-0.548780500889,1.0,0.0,0.0,0.0,1.0,0.0,0.0,0.0,1.0,-0.651222851562,0.114921679688,10.1945106689,1.0,0.0,0.0,0.0,1.0,0.0,0.0,0.0,1.0
1491900039409075627,681,1491900039406093075,,7.73462295532,-0.938708662987,90.0,0.00098600005731,1.0,0.0,0.0,0.0,1.0,0.0,0.0,0.0,1.0,-0.304878056049,2.01219511032,-0.426829278469,1.0,0.0,0.0,0.0,1.0,0.0,0.0,0.0,1.0,-0.603338854892,-0.0335188255255,10.1992990723,1.0,0.0,0.0,0.0,1.0,0.0,0.0,0.0,1.0
1491900039429432974,682,1491900039426585317,,7.72880172729,-0.937712669373,90.0,0.0009710000013,1.0,0.0,0.0,0.0,1.0,0.0,0.0,0.0,1.0,-0.304878056049,2.19512200356,-0.304878056049,1.0,0.0,0.0,0.0,1.0,0.0,0.0,0.0,1.0,-0.521935925381,0.0143652099609,10.4147772217,1.0,0.0,0.0,0.0,1.0,0.0,0.0,0.0,1.0
1491900039450304539,683,1491900039447312247,,7.72835016251,-0.936397910118,90.0,0.000982000026852,1.0,0.0,0.0,0.0,1.0,0.0,0.0,0.0,1.0,-0.365853667259,2.37804889679,-0.365853667259,1.0,0.0,0.0,0.0,1.0,0.0,0.0,0.0,1.0,-0.612915625,0.076614453125,10.165780249,1.0,0.0,0.0,0.0,1.0,0.0,0.0,0.0,1.0
1491900039470910428,684,1491900039468140532,,7.73079204559,-0.933605670929,90.0,0.000977999996394,1.0,0.0,0.0,0.0,1.0,0.0,0.0,0.0,1.0,-0.18292683363,2.19512200356,-0.243902444839,1.0,0.0,0.0,0.0,1.0,0.0,0.0,0.0,1.0,-0.632069238281,0.134075302102,10.1992990723,1.0,0.0,0.0,0.0,1.0,0.0,0.0,0.0,1.0
1491900039492942410,685,1491900039489569233,,7.7333278656,-0.934061586857,90.0,0.00112000002991,1.0,0.0,0.0,0.0,1.0,0.0,0.0,0.0,1.0,-0.487804889679,2.31707310677,-0.487804889679,1.0,0.0,0.0,0.0,1.0,0.0,0.0,0.0,1.0,-0.474051928711,0.0191536132812,10.3429511719,1.0,0.0,0.0,0.0,1.0,0.0,0.0,0.0,1.0
1491900039514904966,686,1491900039510582413,,7.73762369156,-0.935959041119,90.0,0.000979000004008,1.0,0.0,0.0,0.0,1.0,0.0,0.0,0.0,1.0,-0.548780500889,2.31707310677,-0.548780500889,1.0,0.0,0.0,0.0,1.0,0.0,0.0,0.0,1.0,-0.612915625,-0.0478840332031,10.3477395752,1.0,0.0,0.0,0.0,1.0,0.0,0.0,0.0,1.0
1491900039537753302,687,1491900039531942676,,7.73706293106,-0.932103991508,90.0,0.00103199994192,1.0,0.0,0.0,0.0,1.0,0.0,0.0,0.0,1.0,-0.548780500889,2.37804889679,-0.243902444839,1.0,0.0,0.0,0.0,1.0,0.0,0.0,0.0,1.0,-0.565031591797,0.0,10.2519715088,1.0,0.0,0.0,0.0,1.0,0.0,0.0,0.0,1.0
1491900039559693097,688,1491900039554506117,,7.73889875412,-0.933211326599,90.0,0.00125900004059,1.0,0.0,0.0,0.0,1.0,0.0,0.0,0.0,1.0,-0.548780500889,2.25609779358,0.12195122242,1.0,0.0,0.0,0.0,1.0,0.0,0.0,0.0,1.0,-0.636857641602,0.0430956298828,10.1370498291,1.0,0.0,0.0,0.0,1.0,0.0,0.0,0.0,1.0
1491900039576527058,689,1491900039574850339,,7.7408823967,-0.932052373886,90.0,0.00117699999828,1.0,0.0,0.0,0.0,1.0,0.0,0.0,0.0,1.0,-0.426829278469,2.13414645195,-0.0609756112099,1.0,0.0,0.0,0.0,1.0,0.0,0.0,0.0,1.0,-0.713472094727,0.0383072265625,10.2232410889,1.0,0.0,0.0,0.0,1.0,0.0,0.0,0.0,1.0
1491900039597445759,690,1491900039593784040,,7.73336982727,-0.932019770145,90.0,0.00108299998101,1.0,0.0,0.0,0.0,1.0,0.0,0.0,0.0,1.0,-0.609756112099,2.19512200356,-0.12195122242,1.0,0.0,0.0,0.0,1.0,0.0,0.0,0.0,1.0,-0.598550451572,0.067037651051,10.2711251221,1.0,0.0,0.0,0.0,1.0,0.0,0.0,0.0,1.0
1491900039618807793,691,1491900039615051126,,7.72904062271,-0.935028851032,90.0,0.00105900003109,1.0,0.0,0.0,0.0,1.0,0.0,0.0,0.0,1.0,-0.548780500889,2.01219511032,0.0,1.0,0.0,0.0,0.0,1.0,0.0,0.0,0.0,1.0,-0.656011254883,0.0239420166016,10.2950671387,1.0,0.0,0.0,0.0,1.0,0.0,0.0,0.0,1.0
1491900039642514672,692,1491900039639249307,,7.72554922104,-0.931589007378,90.0,0.00426799990237,1.0,0.0,0.0,0.0,1.0,0.0,0.0,0.0,1.0,-0.365853667259,2.56097555161,-0.426829278469,1.0,0.0,0.0,0.0,1.0,0.0,0.0,0.0,1.0,-0.474051928711,0.0478840332031,10.3860468018,1.0,0.0,0.0,0.0,1.0,0.0,0.0,0.0,1.0
1491900039664368216,693,1491900039660676393,,7.72697353363,-0.929321467876,90.0,0.00109300005715,1.0,0.0,0.0,0.0,1.0,0.0,0.0,0.0,1.0,-0.18292683363,2.5,-0.609756112099,1.0,0.0,0.0,0.0,1.0,0.0,0.0,0.0,1.0,-0.445321508789,-0.0622492431641,10.3621047852,1.0,0.0,0.0,0.0,1.0,0.0,0.0,0.0,1.0
1491900039684294886,694,1491900039681197229,,7.73267650604,-0.929137825966,90.0,0.00108600000385,1.0,0.0,0.0,0.0,1.0,0.0,0.0,0.0,1.0,-0.609756112099,2.80487799644,-0.487804889679,1.0,0.0,0.0,0.0,1.0,0.0,0.0,0.0,1.0,-0.531512805087,-0.15322890625,10.2711251221,1.0,0.0,0.0,0.0,1.0,0.0,0.0,0.0,1.0
1491900039704248326,695,1491900039702126555,,7.73699140549,-0.933521866798,90.0,0.000982000026852,1.0,0.0,0.0,0.0,1.0,0.0,0.0,0.0,1.0,-0.243902444839,2.68292689323,-0.18292683363,1.0,0.0,0.0,0.0,1.0,0.0,0.0,0.0,1.0,-0.598550451572,0.00957680664062,10.2807019287,1.0,0.0,0.0,0.0,1.0,0.0,0.0,0.0,1.0
1491900039725832861,696,1491900039722776662,,7.74055051804,-0.936080157757,90.0,0.00101799995173,1.0,0.0,0.0,0.0,1.0,0.0,0.0,0.0,1.0,-0.365853667259,2.5,-0.426829278469,1.0,0.0,0.0,0.0,1.0,0.0,0.0,0.0,1.0,-0.746990917969,0.0622492431641,10.2328178955,1.0,0.0,0.0,0.0,1.0,0.0,0.0,0.0,1.0
1491900039745379843,697,1491900039743926561,,7.74117803574,-0.935066223145,90.0,0.00101300003007,1.0,0.0,0.0,0.0,1.0,0.0,0.0,0.0,1.0,-0.548780500889,2.19512200356,0.0,1.0,0.0,0.0,0.0,1.0,0.0,0.0,0.0,1.0,-0.746990917969,0.0239420166016,10.3094323486,1.0,0.0,0.0,0.0,1.0,0.0,0.0,0.0,1.0
1491900039765736200,698,1491900039764479950,,7.73773765564,-0.930073440075,90.0,0.00109499995597,1.0,0.0,0.0,0.0,1.0,0.0,0.0,0.0,1.0,-0.426829278469,2.01219511032,-0.243902444839,1.0,0.0,0.0,0.0,1.0,0.0,0.0,0.0,1.0,-0.632069238281,0.0383072265625,10.2950671387,1.0,0.0,0.0,0.0,1.0,0.0,0.0,0.0,1.0
1491900039786743130,699,1491900039785595942,,7.73090314865,-0.928376436234,90.0,0.000999000039883,1.0,0.0,0.0,0.0,1.0,0.0,0.0,0.0,1.0,-0.365853667259,1.8902438879,-0.243902444839,1.0,0.0,0.0,0.0,1.0,0.0,0.0,0.0,1.0,-0.670376464844,0.076614453125,10.2519715088,1.0,0.0,0.0,0.0,1.0,0.0,0.0,0.0,1.0
1491900039807175894,700,1491900039806023706,,7.72263860703,-0.927927136421,90.0,0.000979000004008,1.0,0.0,0.0,0.0,1.0,0.0,0.0,0.0,1.0,-0.426829278469,2.19512200356,-0.0609756112099,1.0,0.0,0.0,0.0,1.0,0.0,0.0,0.0,1.0,-0.588973571866,0.0622492431641,10.1992990723,1.0,0.0,0.0,0.0,1.0,0.0,0.0,0.0,1.0
1491900039828212615,701,1491900039827038344,,7.71479988098,-0.928557634354,90.0,0.000964000006206,1.0,0.0,0.0,0.0,1.0,0.0,0.0,0.0,1.0,-0.426829278469,2.13414645195,-0.487804889679,1.0,0.0,0.0,0.0,1.0,0.0,0.0,0.0,1.0,-0.550666381836,-0.0526724365234,10.3094323486,1.0,0.0,0.0,0.0,1.0,0.0,0.0,0.0,1.0
1491900039849018295,702,1491900039847834129,,7.71363019943,-0.933691501617,90.0,0.000964000006206,1.0,0.0,0.0,0.0,1.0,0.0,0.0,0.0,1.0,-0.426829278469,2.43902444839,-0.304878056049,1.0,0.0,0.0,0.0,1.0,0.0,0.0,0.0,1.0,-0.61770402832,0.114921679688,10.1753570557,1.0,0.0,0.0,0.0,1.0,0.0,0.0,0.0,1.0
1491900039870397830,703,1491900039869101996,,7.71161222458,-0.935048937798,90.0,0.000957000011113,1.0,0.0,0.0,0.0,1.0,0.0,0.0,0.0,1.0,-0.487804889679,2.25609779358,-0.243902444839,1.0,0.0,0.0,0.0,1.0,0.0,0.0,0.0,1.0,-0.493205541992,-0.00478840332031,10.2471831055,1.0,0.0,0.0,0.0,1.0,0.0,0.0,0.0,1.0
1491900039891538093,704,1491900039890406062,,7.71516799927,-0.932734727859,90.0,0.00105399999302,1.0,0.0,0.0,0.0,1.0,0.0,0.0,0.0,1.0,-0.609756112099,2.43902444839,-0.487804889679,1.0,0.0,0.0,0.0,1.0,0.0,0.0,0.0,1.0,-0.550666381836,0.0287304199219,10.4482960449,1.0,0.0,0.0,0.0,1.0,0.0,0.0,0.0,1.0
1491900039912038930,705,1491900039910593929,,7.71856498718,-0.936532378197,90.0,0.000960999983363,1.0,0.0,0.0,0.0,1.0,0.0,0.0,0.0,1.0,-0.487804889679,2.5,-0.426829278469,1.0,0.0,0.0,0.0,1.0,0.0,0.0,0.0,1.0,-0.641646044922,0.0,10.4626612549,1.0,0.0,0.0,0.0,1.0,0.0,0.0,0.0,1.0
1491900039932551224,706,1491900039931064714,,7.72070264816,-0.938291549683,90.0,0.000962999998592,1.0,0.0,0.0,0.0,1.0,0.0,0.0,0.0,1.0,-0.670731723309,2.37804889679,-0.304878056049,1.0,0.0,0.0,0.0,1.0,0.0,0.0,0.0,1.0,-0.584185168546,0.0,10.2807019287,1.0,0.0,0.0,0.0,1.0,0.0,0.0,0.0,1.0
1491900039959418103,707,1491900039951807477,,7.72235774994,-0.940223395824,90.0,0.000959999975748,1.0,0.0,0.0,0.0,1.0,0.0,0.0,0.0,1.0,-0.426829278469,2.37804889679,-0.304878056049,1.0,0.0,0.0,0.0,1.0,0.0,0.0,0.0,1.0,-0.569819995117,-0.0191536132812,10.2040874756,1.0,0.0,0.0,0.0,1.0,0.0,0.0,0.0,1.0
1491900039976963470,708,1491900039972832480,,7.7224407196,-0.940821170807,90.0,0.000959000026342,1.0,0.0,0.0,0.0,1.0,0.0,0.0,0.0,1.0,-0.426829278469,2.13414645195,-0.12195122242,1.0,0.0,0.0,0.0,1.0,0.0,0.0,0.0,1.0,-0.627280834961,-0.0287304199219,10.180145459,1.0,0.0,0.0,0.0,1.0,0.0,0.0,0.0,1.0
1491900040001480505,709,1491900040000283630,,7.71076631546,-0.943064630032,90.0,0.00495100021362,1.0,0.0,0.0,0.0,1.0,0.0,0.0,0.0,1.0,-0.609756112099,2.19512200356,-0.487804889679,1.0,0.0,0.0,0.0,1.0,0.0,0.0,0.0,1.0,-0.411802685547,-0.0430956298828,10.4435076416,1.0,0.0,0.0,0.0,1.0,0.0,0.0,0.0,1.0
1491900040023595560,710,1491900040019347747,,7.70789718628,-0.941611409187,90.0,0.00107999995816,1.0,0.0,0.0,0.0,1.0,0.0,0.0,0.0,1.0,-0.487804889679,2.07317066193,-0.365853667259,1.0,0.0,0.0,0.0,1.0,0.0,0.0,0.0,1.0,-0.497993945312,0.0957680664062,10.3477395752,1.0,0.0,0.0,0.0,1.0,0.0,0.0,0.0,1.0
1491900040045283168,711,1491900040039979990,,7.69891452789,-0.943320393562,90.0,0.00114599999506,1.0,0.0,0.0,0.0,1.0,0.0,0.0,0.0,1.0,-0.609756112099,2.37804889679,-0.365853667259,1.0,0.0,0.0,0.0,1.0,0.0,0.0,0.0,1.0,-0.565031591797,0.0861912597656,10.2519715088,1.0,0.0,0.0,0.0,1.0,0.0,0.0,0.0,1.0
1491900040063019993,712,1491900040060717076,,7.69573926926,-0.937988758087,90.0,0.00126699998509,1.0,0.0,0.0,0.0,1.0,0.0,0.0,0.0,1.0,-0.243902444839,2.86585378647,-0.609756112099,1.0,0.0,0.0,0.0,1.0,0.0,0.0,0.0,1.0,-0.488417138672,-0.0335188255255,10.2280294922,1.0,0.0,0.0,0.0,1.0,0.0,0.0,0.0,1.0
1491900040083006611,713,1491900040081350569,,7.69882965088,-0.941550076008,90.0,0.00104300002567,1.0,0.0,0.0,0.0,1.0,0.0,0.0,0.0,1.0,-0.365853667259,2.62195134163,-0.609756112099,1.0,0.0,0.0,0.0,1.0,0.0,0.0,0.0,1.0,-0.579396801758,-0.119710083008,10.314220752,1.0,0.0,0.0,0.0,1.0,0.0,0.0,0.0,1.0
1491900040103666405,714,1491900040102134218,,7.70610952377,-0.939863145351,90.0,0.00102800002787,1.0,0.0,0.0,0.0,1.0,0.0,0.0,0.0,1.0,-0.426829278469,2.92682933807,-0.365853667259,1.0,0.0,0.0,0.0,1.0,0.0,0.0,0.0,1.0,-0.636857641602,0.0861912597656,10.0939541992,1.0,0.0,0.0,0.0,1.0,0.0,0.0,0.0,1.0
1491900040124046617,715,1491900040122849221,,7.71692895889,-0.941062033176,90.0,0.0010000000475,1.0,0.0,0.0,0.0,1.0,0.0,0.0,0.0,1.0,-0.365853667259,2.86585378647,-0.426829278469,1.0,0.0,0.0,0.0,1.0,0.0,0.0,0.0,1.0,-0.588973571866,0.119710083008,10.1514150391,1.0,0.0,0.0,0.0,1.0,0.0,0.0,0.0,1.0
1491900040145701984,716,1491900040144129797,,7.72916698456,-0.943535864353,90.0,0.00114099995699,1.0,0.0,0.0,0.0,1.0,0.0,0.0,0.0,1.0,-0.365853667259,2.62195134163,-0.548780500889,1.0,0.0,0.0,0.0,1.0,0.0,0.0,0.0,1.0,-0.689530078125,-0.0335188255255,10.2950671387,1.0,0.0,0.0,0.0,1.0,0.0,0.0,0.0,1.0
1491900040166638342,717,1491900040165434175,,7.73950910568,-0.945644795895,90.0,0.00102700002026,1.0,0.0,0.0,0.0,1.0,0.0,0.0,0.0,1.0,-0.609756112099,2.13414645195,-0.365853667259,1.0,0.0,0.0,0.0,1.0,0.0,0.0,0.0,1.0,-0.699106884766,0.0861912597656,10.1992990723,1.0,0.0,0.0,0.0,1.0,0.0,0.0,0.0,1.0
1491900040188579803,718,1491900040186776365,,7.73914432526,-0.944082438946,90.0,0.00106599996798,1.0,0.0,0.0,0.0,1.0,0.0,0.0,0.0,1.0,-0.487804889679,1.8292683363,-0.243902444839,1.0,0.0,0.0,0.0,1.0,0.0,0.0,0.0,1.0,-0.656011254883,0.0430956298828,10.1609918457,1.0,0.0,0.0,0.0,1.0,0.0,0.0,0.0,1.0
1491900040209455171,719,1491900040207820639,,7.73531007767,-0.94356495142,90.0,0.00103599997237,1.0,0.0,0.0,0.0,1.0,0.0,0.0,0.0,1.0,-0.487804889679,1.58536589146,0.12195122242,1.0,0.0,0.0,0.0,1.0,0.0,0.0,0.0,1.0,-0.565031591797,0.105344873047,10.1705686523,1.0,0.0,0.0,0.0,1.0,0.0,0.0,0.0,1.0
1491900040230447257,720,1491900040228808872,,7.72295236588,-0.942069888115,90.0,0.00102199998219,1.0,0.0,0.0,0.0,1.0,0.0,0.0,0.0,1.0,-0.0609756112099,1.40243899822,-0.12195122242,1.0,0.0,0.0,0.0,1.0,0.0,0.0,0.0,1.0,-0.483628735352,0.119710083008,10.3094323486,1.0,0.0,0.0,0.0,1.0,0.0,0.0,0.0,1.0
1491900040251204864,721,1491900040249721895,,7.71345186234,-0.941479027271,90.0,0.001007999992,1.0,0.0,0.0,0.0,1.0,0.0,0.0,0.0,1.0,-0.792682945728,2.01219511032,-0.426829278469,1.0,0.0,0.0,0.0,1.0,0.0,0.0,0.0,1.0,-0.440533105469,0.162805712891,10.4004120117,1.0,0.0,0.0,0.0,1.0,0.0,0.0,0.0,1.0
1491900040271829920,722,1491900040270324086,,7.7081618309,-0.941268622875,90.0,0.00101699994411,1.0,0.0,0.0,0.0,1.0,0.0,0.0,0.0,1.0,-0.243902444839,2.25609779358,-0.0609756112099,1.0,0.0,0.0,0.0,1.0,0.0,0.0,0.0,1.0,-0.569819995117,-0.0383072265625,10.4004120117,1.0,0.0,0.0,0.0,1.0,0.0,0.0,0.0,1.0
1491900040292160756,723,1491900040290959506,,7.70659351349,-0.943422794342,90.0,0.001200000057,1.0,0.0,0.0,0.0,1.0,0.0,0.0,0.0,1.0,-0.548780500889,2.5,-0.304878056049,1.0,0.0,0.0,0.0,1.0,0.0,0.0,0.0,1.0,-0.536301208408,-0.0335188255255,10.3333743652,1.0,0.0,0.0,0.0,1.0,0.0,0.0,0.0,1.0
1491900040314381280,724,1491900040311867634,,7.70499706268,-0.943566799164,90.0,0.00100899999961,1.0,0.0,0.0,0.0,1.0,0.0,0.0,0.0,1.0,-0.792682945728,2.62195134163,-0.243902444839,1.0,0.0,0.0,0.0,1.0,0.0,0.0,0.0,1.0,-0.584185168546,0.0478840332031,10.1753570557,1.0,0.0,0.0,0.0,1.0,0.0,0.0,0.0,1.0
1491900040335491595,725,1491900040332964616,,7.70596837997,-0.947702109814,90.0,0.00101100001484,1.0,0.0,0.0,0.0,1.0,0.0,0.0,0.0,1.0,-0.670731723309,2.43902444839,0.0609756112099,1.0,0.0,0.0,0.0,1.0,0.0,0.0,0.0,1.0,-0.569819995117,-0.0526724365234,10.2519715088,1.0,0.0,0.0,0.0,1.0,0.0,0.0,0.0,1.0
1491900040354917484,726,1491900040353626390,,7.70703315735,-0.94911468029,90.0,0.000989999971353,1.0,0.0,0.0,0.0,1.0,0.0,0.0,0.0,1.0,-0.731707334518,2.68292689323,-0.304878056049,1.0,0.0,0.0,0.0,1.0,0.0,0.0,0.0,1.0,-0.670376464844,0.00478840332031,10.2328178955,1.0,0.0,0.0,0.0,1.0,0.0,0.0,0.0,1.0
1491900040375830091,727,1491900040374560247,,7.71351909637,-0.952674865723,90.0,0.00101400003769,1.0,0.0,0.0,0.0,1.0,0.0,0.0,0.0,1.0,-0.609756112099,2.37804889679,-0.0609756112099,1.0,0.0,0.0,0.0,1.0,0.0,0.0,0.0,1.0,-0.517147558594,-0.0143652099609,10.2376062988,1.0,0.0,0.0,0.0,1.0,0.0,0.0,0.0,1.0
1491900040400469782,728,1491900040398622542,,7.71715116501,-0.954110920429,90.0,0.00494599994272,1.0,0.0,0.0,0.0,1.0,0.0,0.0,0.0,1.0,-0.365853667259,2.5,-0.365853667259,1.0,0.0,0.0,0.0,1.0,0.0,0.0,0.0,1.0,-0.478840332031,-0.0143652099609,10.3190091553,1.0,0.0,0.0,0.0,1.0,0.0,0.0,0.0,1.0
1491900040422067598,729,1491900040419992597,,7.72184276581,-0.953390836716,90.0,0.00124899996445,1.0,0.0,0.0,0.0,1.0,0.0,0.0,0.0,1.0,-0.548780500889,2.31707310677,-0.609756112099,1.0,0.0,0.0,0.0,1.0,0.0,0.0,0.0,1.0,-0.565031591797,0.0526724365234,10.3477395752,1.0,0.0,0.0,0.0,1.0,0.0,0.0,0.0,1.0
1491900040441877392,730,1491900040439950413,,7.72058725357,-0.947687625885,90.0,0.0012450000504,1.0,0.0,0.0,0.0,1.0,0.0,0.0,0.0,1.0,-0.18292683363,2.19512200356,-0.304878056049,1.0,0.0,0.0,0.0,1.0,0.0,0.0,0.0,1.0,-0.474051928711,0.0239420166016,10.2711251221,1.0,0.0,0.0,0.0,1.0,0.0,0.0,0.0,1.0
1491900040462800885,731,1491900040460748332,,7.71956825256,-0.945487499237,90.0,0.00174099998549,1.0,0.0,0.0,0.0,1.0,0.0,0.0,0.0,1.0,-0.365853667259,2.19512200356,-0.365853667259,1.0,0.0,0.0,0.0,1.0,0.0,0.0,0.0,1.0,-0.531512805087,-0.0861912597656,10.2088758789,1.0,0.0,0.0,0.0,1.0,0.0,0.0,0.0,1.0
1491900040485242763,732,1491900040482280731,,7.72162294388,-0.943336904049,90.0,0.00193000002764,1.0,0.0,0.0,0.0,1.0,0.0,0.0,0.0,1.0,-0.487804889679,2.25609779358,-0.243902444839,1.0,0.0,0.0,0.0,1.0,0.0,0.0,0.0,1.0,-0.603338854892,0.110133276367,10.0843773926,1.0,0.0,0.0,0.0,1.0,0.0,0.0,0.0,1.0
1491900040505530579,733,1491900040503582609,,7.7206029892,-0.942286729813,90.0,0.00112100003753,1.0,0.0,0.0,0.0,1.0,0.0,0.0,0.0,1.0,-0.487804889679,2.07317066193,-0.12195122242,1.0,0.0,0.0,0.0,1.0,0.0,0.0,0.0,1.0,-0.727837304687,-0.067037651051,10.2423947021,1.0,0.0,0.0,0.0,1.0,0.0,0.0,0.0,1.0
1491900040526281936,734,1491900040524464748,,7.71599960327,-0.939784824848,90.0,0.00116700003855,1.0,0.0,0.0,0.0,1.0,0.0,0.0,0.0,1.0,-0.426829278469,2.25609779358,-0.426829278469,1.0,0.0,0.0,0.0,1.0,0.0,0.0,0.0,1.0,-0.636857641602,0.0,10.2376062988,1.0,0.0,0.0,0.0,1.0,0.0,0.0,0.0,1.0
1491900040546175897,735,1491900040545021834,,7.71171998978,-0.939974725246,90.0,0.00109499995597,1.0,0.0,0.0,0.0,1.0,0.0,0.0,0.0,1.0,-0.18292683363,2.19512200356,-0.365853667259,1.0,0.0,0.0,0.0,1.0,0.0,0.0,0.0,1.0,-0.708683691406,0.0383072265625,10.3094323486,1.0,0.0,0.0,0.0,1.0,0.0,0.0,0.0,1.0
1491900040568124598,736,1491900040566856837,,7.7096323967,-0.940314948559,90.0,0.00102600001264,1.0,0.0,0.0,0.0,1.0,0.0,0.0,0.0,1.0,-0.365853667259,2.25609779358,-0.365853667259,1.0,0.0,0.0,0.0,1.0,0.0,0.0,0.0,1.0,-0.579396801758,0.0957680664062,10.2471831055,1.0,0.0,0.0,0.0,1.0,0.0,0.0,0.0,1.0
1491900040592554862,737,1491900040590147466,,7.71446657181,-0.937618672848,90.0,0.00101699994411,1.0,0.0,0.0,0.0,1.0,0.0,0.0,0.0,1.0,-0.487804889679,2.56097555161,-0.18292683363,1.0,0.0,0.0,0.0,1.0,0.0,0.0,0.0,1.0,-0.656011254883,0.0909796630859,10.2519715088,1.0,0.0,0.0,0.0,1.0,0.0,0.0,0.0,1.0
1491900040613188459,738,1491900040610351479,,7.71682214737,-0.938408970833,90.0,0.00101799995173,1.0,0.0,0.0,0.0,1.0,0.0,0.0,0.0,1.0,-0.426829278469,2.37804889679,-0.12195122242,1.0,0.0,0.0,0.0,1.0,0.0,0.0,0.0,1.0,-0.593762048251,0.0335188255255,10.2280294922,1.0,0.0,0.0,0.0,1.0,0.0,0.0,0.0,1.0
1491900040633998358,739,1491900040631683566,,7.71930265427,-0.944609880447,90.0,0.000976999988779,1.0,0.0,0.0,0.0,1.0,0.0,0.0,0.0,1.0,-0.609756112099,2.19512200356,-0.18292683363,1.0,0.0,0.0,0.0,1.0,0.0,0.0,0.0,1.0,-0.450109912109,0.15322890625,10.2567599121,1.0,0.0,0.0,0.0,1.0,0.0,0.0,0.0,1.0
1491900040651255444,740,1491900040649607943,,7.72441720963,-0.947162985802,90.0,0.000958000018727,1.0,0.0,0.0,0.0,1.0,0.0,0.0,0.0,1.0,-0.487804889679,2.07317066193,-0.609756112099,1.0,0.0,0.0,0.0,1.0,0.0,0.0,0.0,1.0,-0.569819995117,0.0239420166016,10.3381627686,1.0,0.0,0.0,0.0,1.0,0.0,0.0,0.0,1.0
1491900040672369144,741,1491900040670577946,,7.72759199142,-0.948062062263,90.0,0.000960999983363,1.0,0.0,0.0,0.0,1.0,0.0,0.0,0.0,1.0,-0.304878056049,2.07317066193,-0.304878056049,1.0,0.0,0.0,0.0,1.0,0.0,0.0,0.0,1.0,-0.694318481445,0.0143652099609,10.3956236084,1.0,0.0,0.0,0.0,1.0,0.0,0.0,0.0,1.0
1491900040693454929,742,1491900040691173001,,7.72792053223,-0.945381939411,90.0,0.00111499999184,1.0,0.0,0.0,0.0,1.0,0.0,0.0,0.0,1.0,-0.609756112099,2.07317066193,-0.18292683363,1.0,0.0,0.0,0.0,1.0,0.0,0.0,0.0,1.0,-0.60812722168,0.0,10.2759135254,1.0,0.0,0.0,0.0,1.0,0.0,0.0,0.0,1.0
1491900040715763786,743,1491900040712053629,,7.72410774231,-0.944743871689,90.0,0.000956000003498,1.0,0.0,0.0,0.0,1.0,0.0,0.0,0.0,1.0,-0.731707334518,2.5,-0.18292683363,1.0,0.0,0.0,0.0,1.0,0.0,0.0,0.0,1.0,-0.488417138672,-0.0287304199219,10.2567599121,1.0,0.0,0.0,0.0,1.0,0.0,0.0,0.0,1.0
1491900040735083268,744,1491900040733535455,,7.7175116539,-0.942058563232,90.0,0.000964000006206,1.0,0.0,0.0,0.0,1.0,0.0,0.0,0.0,1.0,-0.365853667259,2.07317066193,-0.18292683363,1.0,0.0,0.0,0.0,1.0,0.0,0.0,0.0,1.0,-0.612915625,-0.00478840332031,10.2567599121,1.0,0.0,0.0,0.0,1.0,0.0,0.0,0.0,1.0
1491900040756517959,745,1491900040754551344,,7.71373081207,-0.941467165947,90.0,0.00114299997222,1.0,0.0,0.0,0.0,1.0,0.0,0.0,0.0,1.0,-0.304878056049,2.31707310677,-0.365853667259,1.0,0.0,0.0,0.0,1.0,0.0,0.0,0.0,1.0,-0.541089611728,-0.0239420166016,10.1945106689,1.0,0.0,0.0,0.0,1.0,0.0,0.0,0.0,1.0
1491900040777504472,746,1491900040775460670,,7.71305990219,-0.940574944019,90.0,0.00101400003769,1.0,0.0,0.0,0.0,1.0,0.0,0.0,0.0,1.0,-0.487804889679,2.43902444839,-0.365853667259,1.0,0.0,0.0,0.0,1.0,0.0,0.0,0.0,1.0,-0.565031591797,0.0478840332031,10.314220752,1.0,0.0,0.0,0.0,1.0,0.0,0.0,0.0,1.0
1491900040798509163,747,1491900040796771871,,7.7158536911,-0.939581096172,90.0,0.00104000000283,1.0,0.0,0.0,0.0,1.0,0.0,0.0,0.0,1.0,-0.609756112099,2.31707310677,-0.487804889679,1.0,0.0,0.0,0.0,1.0,0.0,0.0,0.0,1.0,-0.493205541992,0.0622492431641,10.2376062988,1.0,0.0,0.0,0.0,1.0,0.0,0.0,0.0,1.0
1491900040820428176,748,1491900040818391093,,7.72075939178,-0.940267026424,90.0,0.00147699995432,1.0,0.0,0.0,0.0,1.0,0.0,0.0,0.0,1.0,-0.487804889679,2.5,-0.365853667259,1.0,0.0,0.0,0.0,1.0,0.0,0.0,0.0,1.0,-0.488417138672,-0.0335188255255,10.2615483154,1.0,0.0,0.0,0.0,1.0,0.0,0.0,0.0,1.0
1491900040843935055,749,1491900040840461513,,7.72665452957,-0.942291259766,90.0,0.00216299993917,1.0,0.0,0.0,0.0,1.0,0.0,0.0,0.0,1.0,-0.426829278469,2.74390244484,-0.609756112099,1.0,0.0,0.0,0.0,1.0,0.0,0.0,0.0,1.0,-0.478840332031,-0.0430956298828,10.2950671387,1.0,0.0,0.0,0.0,1.0,0.0,0.0,0.0,1.0
1491900040864081412,750,1491900040860867662,,7.72972345352,-0.945786893368,90.0,0.00209799990989,1.0,0.0,0.0,0.0,1.0,0.0,0.0,0.0,1.0,-0.731707334518,2.62195134163,-0.304878056049,1.0,0.0,0.0,0.0,1.0,0.0,0.0,0.0,1.0,-0.488417138672,-0.067037651051,10.2519715088,1.0,0.0,0.0,0.0,1.0,0.0,0.0,0.0,1.0
1491900040886127561,751,1491900040882530165,,7.73577213287,-0.944615602493,90.0,0.00115400005598,1.0,0.0,0.0,0.0,1.0,0.0,0.0,0.0,1.0,-0.487804889679,2.5,-0.609756112099,1.0,0.0,0.0,0.0,1.0,0.0,0.0,0.0,1.0,-0.703895288086,0.0478840332031,10.0556469727,1.0,0.0,0.0,0.0,1.0,0.0,0.0,0.0,1.0
1491900040905703710,752,1491900040903497616,,7.73628664017,-0.944384276867,90.0,0.0010529999854,1.0,0.0,0.0,0.0,1.0,0.0,0.0,0.0,1.0,-0.548780500889,2.37804889679,-0.18292683363,1.0,0.0,0.0,0.0,1.0,0.0,0.0,0.0,1.0,-0.60812722168,-0.00478840332031,10.2040874756,1.0,0.0,0.0,0.0,1.0,0.0,0.0,0.0,1.0
1491900040926778973,753,1491900040924406265,,7.73597192764,-0.941437065601,90.0,0.00113900005817,1.0,0.0,0.0,0.0,1.0,0.0,0.0,0.0,1.0,-0.487804889679,2.31707310677,-0.304878056049,1.0,0.0,0.0,0.0,1.0,0.0,0.0,0.0,1.0,-0.684741674805,-0.0287304199219,10.3668931885,1.0,0.0,0.0,0.0,1.0,0.0,0.0,0.0,1.0
1491900040947393716,754,1491900040945614445,,7.73539829254,-0.94166713953,90.0,0.00144699995872,1.0,0.0,0.0,0.0,1.0,0.0,0.0,0.0,1.0,-0.12195122242,1.8292683363,-0.365853667259,1.0,0.0,0.0,0.0,1.0,0.0,0.0,0.0,1.0,-0.641646044922,0.0430956298828,10.3094323486,1.0,0.0,0.0,0.0,1.0,0.0,0.0,0.0,1.0
1491900040968197260,755,1491900040966512677,,7.73677587509,-0.937690556049,90.0,0.00126299995463,1.0,0.0,0.0,0.0,1.0,0.0,0.0,0.0,1.0,-0.670731723309,2.19512200356,-0.18292683363,1.0,0.0,0.0,0.0,1.0,0.0,0.0,0.0,1.0,-0.593762048251,-0.0574608398438,10.299855542,1.0,0.0,0.0,0.0,1.0,0.0,0.0,0.0,1.0
1491900040990032107,756,1491900040986962784,,7.73790025711,-0.9361333251,90.0,0.000982000026852,1.0,0.0,0.0,0.0,1.0,0.0,0.0,0.0,1.0,-0.12195122242,2.31707310677,-0.304878056049,1.0,0.0,0.0,0.0,1.0,0.0,0.0,0.0,1.0,-0.60812722168,-0.00478840332031,10.2423947021,1.0,0.0,0.0,0.0,1.0,0.0,0.0,0.0,1.0
1491900041009881850,757,1491900041008161433,,7.73539209366,-0.939327001572,90.0,0.000999000039883,1.0,0.0,0.0,0.0,1.0,0.0,0.0,0.0,1.0,-0.365853667259,2.01219511032,-0.18292683363,1.0,0.0,0.0,0.0,1.0,0.0,0.0,0.0,1.0,-0.502782348633,0.105344873047,10.165780249,1.0,0.0,0.0,0.0,1.0,0.0,0.0,0.0,1.0
1491900041031117738,758,1491900041028979769,,7.73150205612,-0.937701880932,90.0,0.000968999986071,1.0,0.0,0.0,0.0,1.0,0.0,0.0,0.0,1.0,-0.365853667259,2.25609779358,-0.304878056049,1.0,0.0,0.0,0.0,1.0,0.0,0.0,0.0,1.0,-0.416591088867,0.0718260498047,10.299855542,1.0,0.0,0.0,0.0,1.0,0.0,0.0,0.0,1.0
1491900041051696023,759,1491900041049903939,,7.73288917542,-0.937715113163,90.0,0.000968999986071,1.0,0.0,0.0,0.0,1.0,0.0,0.0,0.0,1.0,-0.304878056049,1.95121955872,-0.426829278469,1.0,0.0,0.0,0.0,1.0,0.0,0.0,0.0,1.0,-0.569819995117,-0.0622492431641,10.3285859619,1.0,0.0,0.0,0.0,1.0,0.0,0.0,0.0,1.0
1491900041072125088,760,1491900041070520713,,7.73695325851,-0.938663899899,90.0,0.00101200002246,1.0,0.0,0.0,0.0,1.0,0.0,0.0,0.0,1.0,-0.365853667259,2.5,-0.0609756112099,1.0,0.0,0.0,0.0,1.0,0.0,0.0,0.0,1.0,-0.569819995117,0.076614453125,10.2759135254,1.0,0.0,0.0,0.0,1.0,0.0,0.0,0.0,1.0
1491900041095036966,761,1491900041091676393,,7.73861885071,-0.941891491413,90.0,0.00113600003533,1.0,0.0,0.0,0.0,1.0,0.0,0.0,0.0,1.0,-0.548780500889,2.80487799644,-0.487804889679,1.0,0.0,0.0,0.0,1.0,0.0,0.0,0.0,1.0,-0.574608398438,-0.0239420166016,10.2088758789,1.0,0.0,0.0,0.0,1.0,0.0,0.0,0.0,1.0
1491900041116014470,762,1491900041112040979,,7.74244689941,-0.9486374259,90.0,0.00101100001484,1.0,0.0,0.0,0.0,1.0,0.0,0.0,0.0,1.0,-0.487804889679,2.62195134163,-0.365853667259,1.0,0.0,0.0,0.0,1.0,0.0,0.0,0.0,1.0,-0.646434448242,-0.0287304199219,10.0939541992,1.0,0.0,0.0,0.0,1.0,0.0,0.0,0.0,1.0
1491900041135086347,763,1491900041132848222,,7.74552488327,-0.953772425652,90.0,0.000992999994196,1.0,0.0,0.0,0.0,1.0,0.0,0.0,0.0,1.0,-0.670731723309,2.37804889679,-0.243902444839,1.0,0.0,0.0,0.0,1.0,0.0,0.0,0.0,1.0,-0.660799658203,-0.0718260498047,10.2759135254,1.0,0.0,0.0,0.0,1.0,0.0,0.0,0.0,1.0
1491900041159188486,764,1491900041157220986,,7.75025939941,-0.954838693142,90.0,0.000989999971353,1.0,0.0,0.0,0.0,1.0,0.0,0.0,0.0,1.0,-0.670731723309,2.01219511032,0.0,1.0,0.0,0.0,0.0,1.0,0.0,0.0,0.0,1.0,-0.660799658203,0.0574608398438,10.2423947021,1.0,0.0,0.0,0.0,1.0,0.0,0.0,0.0,1.0
1491900041178302604,765,1491900041175427343,,7.75728797913,-0.955372869968,90.0,0.00129899999592,1.0,0.0,0.0,0.0,1.0,0.0,0.0,0.0,1.0,-0.304878056049,2.01219511032,0.18292683363,1.0,0.0,0.0,0.0,1.0,0.0,0.0,0.0,1.0,-0.569819995117,0.0287304199219,10.180145459,1.0,0.0,0.0,0.0,1.0,0.0,0.0,0.0,1.0
1491900041198963909,766,1491900041196370315,,7.75046205521,-0.954326570034,90.0,0.00150599994231,1.0,0.0,0.0,0.0,1.0,0.0,0.0,0.0,1.0,-0.365853667259,1.76829278469,-0.243902444839,1.0,0.0,0.0,0.0,1.0,0.0,0.0,0.0,1.0,-0.507570751953,-0.0622492431641,10.3668931885,1.0,0.0,0.0,0.0,1.0,0.0,0.0,0.0,1.0
1491900041223688496,767,1491900041219819849,,7.74717664719,-0.950445115566,90.0,0.00589400017634,1.0,0.0,0.0,0.0,1.0,0.0,0.0,0.0,1.0,-0.426829278469,2.13414645195,-0.670731723309,1.0,0.0,0.0,0.0,1.0,0.0,0.0,0.0,1.0,-0.411802685547,0.0430956298828,10.3046439453,1.0,0.0,0.0,0.0,1.0,0.0,0.0,0.0,1.0
1491900041244183447,768,1491900041241233602,,7.74339056015,-0.950998663902,90.0,0.00147100002505,1.0,0.0,0.0,0.0,1.0,0.0,0.0,0.0,1.0,-0.487804889679,2.5,-0.426829278469,1.0,0.0,0.0,0.0,1.0,0.0,0.0,0.0,1.0,-0.555454785156,-0.0574608398438,10.2615483154,1.0,0.0,0.0,0.0,1.0,0.0,0.0,0.0,1.0
1491900041265101418,769,1491900041262077512,,7.74026870728,-0.951705813408,90.0,0.00104700005613,1.0,0.0,0.0,0.0,1.0,0.0,0.0,0.0,1.0,-0.609756112099,2.80487799644,-0.365853667259,1.0,0.0,0.0,0.0,1.0,0.0,0.0,0.0,1.0,-0.593762048251,0.0478840332031,10.1562034424,1.0,0.0,0.0,0.0,1.0,0.0,0.0,0.0,1.0
1491900041286263296,770,1491900041283167463,,7.74287080765,-0.952740430832,90.0,0.0010150000453,1.0,0.0,0.0,0.0,1.0,0.0,0.0,0.0,1.0,-0.365853667259,2.62195134163,-0.304878056049,1.0,0.0,0.0,0.0,1.0,0.0,0.0,0.0,1.0,-0.651222851562,0.0191536132812,10.2184526855,1.0,0.0,0.0,0.0,1.0,0.0,0.0,0.0,1.0
1491900041305921633,771,1491900041303799445,,7.74261856079,-0.948374330997,90.0,0.00102399999741,1.0,0.0,0.0,0.0,1.0,0.0,0.0,0.0,1.0,-0.548780500889,2.5,-0.304878056049,1.0,0.0,0.0,0.0,1.0,0.0,0.0,0.0,1.0,-0.627280834961,0.0,10.2950671387,1.0,0.0,0.0,0.0,1.0,0.0,0.0,0.0,1.0
1491900041326792781,772,1491900041324548667,,7.74875164032,-0.947270214558,90.0,0.00113099999726,1.0,0.0,0.0,0.0,1.0,0.0,0.0,0.0,1.0,-0.548780500889,2.56097555161,-0.18292683363,1.0,0.0,0.0,0.0,1.0,0.0,0.0,0.0,1.0,-0.708683691406,0.00957680664062,10.2136642822,1.0,0.0,0.0,0.0,1.0,0.0,0.0,0.0,1.0
1491900041347554868,773,1491900041345473045,,7.75358057022,-0.946455538273,90.0,0.00121000001673,1.0,0.0,0.0,0.0,1.0,0.0,0.0,0.0,1.0,-0.548780500889,2.43902444839,-0.365853667259,1.0,0.0,0.0,0.0,1.0,0.0,0.0,0.0,1.0,-0.713472094727,0.0718260498047,10.2136642822,1.0,0.0,0.0,0.0,1.0,0.0,0.0,0.0,1.0
1491900041370042059,774,1491900041366818204,,7.75514173508,-0.945167839527,90.0,0.00109799997881,1.0,0.0,0.0,0.0,1.0,0.0,0.0,0.0,1.0,-0.487804889679,2.25609779358,-0.304878056049,1.0,0.0,0.0,0.0,1.0,0.0,0.0,0.0,1.0,-0.579396801758,0.0239420166016,10.2328178955,1.0,0.0,0.0,0.0,1.0,0.0,0.0,0.0,1.0
1491900041390828780,775,1491900041387803363,,7.75671339035,-0.944298446178,90.0,0.000972000008915,1.0,0.0,0.0,0.0,1.0,0.0,0.0,0.0,1.0,-0.548780500889,1.64634156227,-0.12195122242,1.0,0.0,0.0,0.0,1.0,0.0,0.0,0.0,1.0,-0.622492431641,0.110133276367,10.1178962158,1.0,0.0,0.0,0.0,1.0,0.0,0.0,0.0,1.0
1491900041411888054,776,1491900041408590137,,7.75468683243,-0.942334532738,90.0,0.00101300003007,1.0,0.0,0.0,0.0,1.0,0.0,0.0,0.0,1.0,-0.426829278469,1.76829278469,-0.365853667259,1.0,0.0,0.0,0.0,1.0,0.0,0.0,0.0,1.0,-0.60812722168,0.0861912597656,9.99818613281,1.0,0.0,0.0,0.0,1.0,0.0,0.0,0.0,1.0
1491900041432033266,777,1491900041429440348,,7.74959802628,-0.940696895123,90.0,0.00101200002246,1.0,0.0,0.0,0.0,1.0,0.0,0.0,0.0,1.0,-0.609756112099,1.64634156227,-0.304878056049,1.0,0.0,0.0,0.0,1.0,0.0,0.0,0.0,1.0,-0.478840332031,0.0335188255255,10.314220752,1.0,0.0,0.0,0.0,1.0,0.0,0.0,0.0,1.0
1491900041453952904,778,1491900041450874050,,7.74384880066,-0.940274059772,90.0,0.00105900003109,1.0,0.0,0.0,0.0,1.0,0.0,0.0,0.0,1.0,-0.609756112099,2.19512200356,-0.0609756112099,1.0,0.0,0.0,0.0,1.0,0.0,0.0,0.0,1.0,-0.574608398438,0.0526724365234,10.2471831055,1.0,0.0,0.0,0.0,1.0,0.0,0.0,0.0,1.0
1491900041475510980,779,1491900041472020355,,7.74406003952,-0.939426124096,90.0,0.00101799995173,1.0,0.0,0.0,0.0,1.0,0.0,0.0,0.0,1.0,-0.914634168148,2.62195134163,-0.304878056049,1.0,0.0,0.0,0.0,1.0,0.0,0.0,0.0,1.0,-0.507570751953,0.00478840332031,10.3285859619,1.0,0.0,0.0,0.0,1.0,0.0,0.0,0.0,1.0
1491900041499115150,780,1491900041493024212,,7.74645709991,-0.94048845768,90.0,0.00109200004954,1.0,0.0,0.0,0.0,1.0,0.0,0.0,0.0,1.0,-0.548780500889,2.92682933807,-0.365853667259,1.0,0.0,0.0,0.0,1.0,0.0,0.0,0.0,1.0,-0.598550451572,-0.0143652099609,10.1322614258,1.0,0.0,0.0,0.0,1.0,0.0,0.0,0.0,1.0
1491900041517924580,781,1491900041514244996,,7.74928236008,-0.941320776939,90.0,0.00116900005378,1.0,0.0,0.0,0.0,1.0,0.0,0.0,0.0,1.0,-0.304878056049,2.5,-0.243902444839,1.0,0.0,0.0,0.0,1.0,0.0,0.0,0.0,1.0,-0.521935925381,0.0335188255255,10.2615483154,1.0,0.0,0.0,0.0,1.0,0.0,0.0,0.0,1.0
1491900041539415937,782,1491900041535629010,,7.75859355927,-0.943023502827,90.0,0.00110300001688,1.0,0.0,0.0,0.0,1.0,0.0,0.0,0.0,1.0,-0.487804889679,2.19512200356,-0.304878056049,1.0,0.0,0.0,0.0,1.0,0.0,0.0,0.0,1.0,-0.627280834961,-0.0909796630859,10.2807019287,1.0,0.0,0.0,0.0,1.0,0.0,0.0,0.0,1.0
1491900041559110992,783,1491900041556988127,,7.76446294785,-0.942775845528,90.0,0.00121400004718,1.0,0.0,0.0,0.0,1.0,0.0,0.0,0.0,1.0,-0.426829278469,2.19512200356,-0.304878056049,1.0,0.0,0.0,0.0,1.0,0.0,0.0,0.0,1.0,-0.512359155273,-0.0430956298828,10.2950671387,1.0,0.0,0.0,0.0,1.0,0.0,0.0,0.0,1.0
1491900041580303912,784,1491900041577976620,,7.76985883713,-0.94448274374,90.0,0.00115799997002,1.0,0.0,0.0,0.0,1.0,0.0,0.0,0.0,1.0,-0.609756112099,2.13414645195,-0.243902444839,1.0,0.0,0.0,0.0,1.0,0.0,0.0,0.0,1.0,-0.407014282227,0.0143652099609,10.3190091553,1.0,0.0,0.0,0.0,1.0,0.0,0.0,0.0,1.0
1491900041604659905,785,1491900041599760946,,7.76920604706,-0.942510068417,90.0,0.00111299997661,1.0,0.0,0.0,0.0,1.0,0.0,0.0,0.0,1.0,-0.304878056049,1.95121955872,-0.18292683363,1.0,0.0,0.0,0.0,1.0,0.0,0.0,0.0,1.0,-0.497993945312,0.100556469727,10.2615483154,1.0,0.0,0.0,0.0,1.0,0.0,0.0,0.0,1.0
1491900041624136731,786,1491900041620466730,,7.76865005493,-0.942916929722,90.0,0.00109899998643,1.0,0.0,0.0,0.0,1.0,0.0,0.0,0.0,1.0,-0.670731723309,2.25609779358,-0.365853667259,1.0,0.0,0.0,0.0,1.0,0.0,0.0,0.0,1.0,-0.550666381836,-0.0526724365234,10.2615483154,1.0,0.0,0.0,0.0,1.0,0.0,0.0,0.0,1.0
1491900041645598661,787,1491900041641979859,,7.76448202133,-0.941285312176,90.0,0.00175799999852,1.0,0.0,0.0,0.0,1.0,0.0,0.0,0.0,1.0,-0.18292683363,2.25609779358,-0.487804889679,1.0,0.0,0.0,0.0,1.0,0.0,0.0,0.0,1.0,-0.588973571866,0.0718260498047,10.2471831055,1.0,0.0,0.0,0.0,1.0,0.0,0.0,0.0,1.0
1491900041665615956,788,1491900041662790174,,7.76065444946,-0.942677140236,90.0,0.00102800002787,1.0,0.0,0.0,0.0,1.0,0.0,0.0,0.0,1.0,-0.609756112099,2.37804889679,-0.304878056049,1.0,0.0,0.0,0.0,1.0,0.0,0.0,0.0,1.0,-0.588973571866,0.167594116211,10.1226846191,1.0,0.0,0.0,0.0,1.0,0.0,0.0,0.0,1.0
1491900041687078615,789,1491900041683536688,,7.75583553314,-0.942388236523,90.0,0.00121400004718,1.0,0.0,0.0,0.0,1.0,0.0,0.0,0.0,1.0,-0.365853667259,2.19512200356,-0.426829278469,1.0,0.0,0.0,0.0,1.0,0.0,0.0,0.0,1.0,-0.641646044922,-0.0335188255255,10.3573163818,1.0,0.0,0.0,0.0,1.0,0.0,0.0,0.0,1.0
1491900041707027420,790,1491900041704596743,,7.75324678421,-0.940861344337,90.0,0.00115499994718,1.0,0.0,0.0,0.0,1.0,0.0,0.0,0.0,1.0,-0.548780500889,2.37804889679,-0.426829278469,1.0,0.0,0.0,0.0,1.0,0.0,0.0,0.0,1.0,-0.579396801758,0.0478840332031,10.1705686523,1.0,0.0,0.0,0.0,1.0,0.0,0.0,0.0,1.0
1491900041728856382,791,1491900041725009142,,7.75504875183,-0.942702054977,90.0,0.00157900003251,1.0,0.0,0.0,0.0,1.0,0.0,0.0,0.0,1.0,-0.304878056049,2.37804889679,-0.304878056049,1.0,0.0,0.0,0.0,1.0,0.0,0.0,0.0,1.0,-0.703895288086,0.0478840332031,10.1992990723,1.0,0.0,0.0,0.0,1.0,0.0,0.0,0.0,1.0
1491900041748957114,792,1491900041746304040,,7.75761365891,-0.942977786064,90.0,0.000998000032268,1.0,0.0,0.0,0.0,1.0,0.0,0.0,0.0,1.0,-0.426829278469,2.5,-0.243902444839,1.0,0.0,0.0,0.0,1.0,0.0,0.0,0.0,1.0,-0.541089611728,0.0,10.1705686523,1.0,0.0,0.0,0.0,1.0,0.0,0.0,0.0,1.0
1491900041770546023,793,1491900041767058523,,7.76384115219,-0.943397700787,90.0,0.00105900003109,1.0,0.0,0.0,0.0,1.0,0.0,0.0,0.0,1.0,-0.487804889679,2.62195134163,-0.12195122242,1.0,0.0,0.0,0.0,1.0,0.0,0.0,0.0,1.0,-0.584185168546,-0.0143652099609,10.3621047852,1.0,0.0,0.0,0.0,1.0,0.0,0.0,0.0,1.0
1491900041791394307,794,1491900041788367015,,7.7695813179,-0.945491552353,90.0,0.00104200001806,1.0,0.0,0.0,0.0,1.0,0.0,0.0,0.0,1.0,-0.365853667259,2.19512200356,-0.304878056049,1.0,0.0,0.0,0.0,1.0,0.0,0.0,0.0,1.0,-0.574608398438,0.110133276367,10.2184526855,1.0,0.0,0.0,0.0,1.0,0.0,0.0,0.0,1.0
1491900041811985352,795,1491900041809083737,,7.77226209641,-0.946619093418,90.0,0.00100899999961,1.0,0.0,0.0,0.0,1.0,0.0,0.0,0.0,1.0,-0.426829278469,2.07317066193,-0.12195122242,1.0,0.0,0.0,0.0,1.0,0.0,0.0,0.0,1.0,-0.521935925381,0.0909796630859,10.3477395752,1.0,0.0,0.0,0.0,1.0,0.0,0.0,0.0,1.0
1491900041832252699,796,1491900041830077230,,7.7714805603,-0.946191370487,90.0,0.00101200002246,1.0,0.0,0.0,0.0,1.0,0.0,0.0,0.0,1.0,-0.670731723309,1.8902438879,0.12195122242,1.0,0.0,0.0,0.0,1.0,0.0,0.0,0.0,1.0,-0.584185168546,0.0287304199219,10.3860468018,1.0,0.0,0.0,0.0,1.0,0.0,0.0,0.0,1.0
1491900041855481348,797,1491900041851274837,,7.76532125473,-0.946547806263,90.0,0.00102099997457,1.0,0.0,0.0,0.0,1.0,0.0,0.0,0.0,1.0,-0.365853667259,2.25609779358,-0.18292683363,1.0,0.0,0.0,0.0,1.0,0.0,0.0,0.0,1.0,-0.526724328702,0.0335188255255,10.165780249,1.0,0.0,0.0,0.0,1.0,0.0,0.0,0.0,1.0
1491900041875660622,798,1491900041872590153,,7.75946903229,-0.94645267725,90.0,0.00101899995934,1.0,0.0,0.0,0.0,1.0,0.0,0.0,0.0,1.0,-0.243902444839,2.31707310677,0.0609756112099,1.0,0.0,0.0,0.0,1.0,0.0,0.0,0.0,1.0,-0.632069238281,-0.0622492431641,10.2423947021,1.0,0.0,0.0,0.0,1.0,0.0,0.0,0.0,1.0
1491900041898278177,799,1491900041893555572,,7.75553894043,-0.945665001869,90.0,0.00103399995714,1.0,0.0,0.0,0.0,1.0,0.0,0.0,0.0,1.0,-0.487804889679,2.5,-0.18292683363,1.0,0.0,0.0,0.0,1.0,0.0,0.0,0.0,1.0,-0.593762048251,0.0430956298828,10.2615483154,1.0,0.0,0.0,0.0,1.0,0.0,0.0,0.0,1.0
1491900041919203284,800,1491900041913944950,,7.7539691925,-0.943693041801,90.0,0.00106200005393,1.0,0.0,0.0,0.0,1.0,0.0,0.0,0.0,1.0,-0.365853667259,2.37804889679,-0.304878056049,1.0,0.0,0.0,0.0,1.0,0.0,0.0,0.0,1.0,-0.555454785156,0.0191536132812,10.314220752,1.0,0.0,0.0,0.0,1.0,0.0,0.0,0.0,1.0
1491900041938808964,801,1491900041934510630,,7.75334596634,-0.944318830967,90.0,0.00110899994615,1.0,0.0,0.0,0.0,1.0,0.0,0.0,0.0,1.0,-0.487804889679,2.13414645195,-0.365853667259,1.0,0.0,0.0,0.0,1.0,0.0,0.0,0.0,1.0,-0.598550451572,0.0430956298828,10.3333743652,1.0,0.0,0.0,0.0,1.0,0.0,0.0,0.0,1.0
1491900041957694384,802,1491900041956010998,,7.75962209702,-0.946030914783,90.0,0.0013119999785,1.0,0.0,0.0,0.0,1.0,0.0,0.0,0.0,1.0,-0.426829278469,2.43902444839,-0.365853667259,1.0,0.0,0.0,0.0,1.0,0.0,0.0,0.0,1.0,-0.598550451572,0.0,10.2519715088,1.0,0.0,0.0,0.0,1.0,0.0,0.0,0.0,1.0
1491900041980360689,803,1491900041976476782,,7.77029848099,-0.94702488184,90.0,0.00107500003651,1.0,0.0,0.0,0.0,1.0,0.0,0.0,0.0,1.0,-0.731707334518,2.5,-0.304878056049,1.0,0.0,0.0,0.0,1.0,0.0,0.0,0.0,1.0,-0.555454785156,0.0335188255255,10.1609918457,1.0,0.0,0.0,0.0,1.0,0.0,0.0,0.0,1.0
1491900042004742828,804,1491900041998172567,,7.77427434921,-0.946681976318,90.0,0.001304000034,1.0,0.0,0.0,0.0,1.0,0.0,0.0,0.0,1.0,-0.487804889679,2.56097555161,-0.487804889679,1.0,0.0,0.0,0.0,1.0,0.0,0.0,0.0,1.0,-0.440533105469,-0.0335188255255,10.3573163818,1.0,0.0,0.0,0.0,1.0,0.0,0.0,0.0,1.0
1491900042021137310,805,1491900042018437622,,7.78130912781,-0.945148289204,90.0,0.00121100002434,1.0,0.0,0.0,0.0,1.0,0.0,0.0,0.0,1.0,-0.548780500889,2.19512200356,-0.426829278469,1.0,0.0,0.0,0.0,1.0,0.0,0.0,0.0,1.0,-0.555454785156,0.0430956298828,10.2040874756,1.0,0.0,0.0,0.0,1.0,0.0,0.0,0.0,1.0
1491900042042163198,806,1491900042039990594,,7.78089284897,-0.945012271404,90.0,0.00116800004616,1.0,0.0,0.0,0.0,1.0,0.0,0.0,0.0,1.0,-0.304878056049,2.19512200356,-0.243902444839,1.0,0.0,0.0,0.0,1.0,0.0,0.0,0.0,1.0,-0.584185168546,-0.0239420166016,10.299855542,1.0,0.0,0.0,0.0,1.0,0.0,0.0,0.0,1.0
1491900042064300285,807,1491900042061573461,,7.77562379837,-0.940438628197,90.0,0.00106000003871,1.0,0.0,0.0,0.0,1.0,0.0,0.0,0.0,1.0,-0.548780500889,2.19512200356,-0.243902444839,1.0,0.0,0.0,0.0,1.0,0.0,0.0,0.0,1.0,-0.660799658203,-0.0287304199219,10.1418382324,1.0,0.0,0.0,0.0,1.0,0.0,0.0,0.0,1.0
1491900042084190600,808,1491900042082378048,,7.76601839066,-0.935751140118,90.0,0.0010379999876,1.0,0.0,0.0,0.0,1.0,0.0,0.0,0.0,1.0,-0.304878056049,2.07317066193,-0.304878056049,1.0,0.0,0.0,0.0,1.0,0.0,0.0,0.0,1.0,-0.61770402832,0.114921679688,10.2232410889,1.0,0.0,0.0,0.0,1.0,0.0,0.0,0.0,1.0
1491900042104542947,809,1491900042103069717,,7.75587558746,-0.933760583401,90.0,0.00109100004192,1.0,0.0,0.0,0.0,1.0,0.0,0.0,0.0,1.0,-0.609756112099,2.13414645195,-0.18292683363,1.0,0.0,0.0,0.0,1.0,0.0,0.0,0.0,1.0,-0.622492431641,0.0861912597656,10.165780249,1.0,0.0,0.0,0.0,1.0,0.0,0.0,0.0,1.0
1491900042125655502,810,1491900042124454252,,7.74807548523,-0.932343423367,90.0,0.00143900001422,1.0,0.0,0.0,0.0,1.0,0.0,0.0,0.0,1.0,-0.18292683363,2.31707310677,-0.304878056049,1.0,0.0,0.0,0.0,1.0,0.0,0.0,0.0,1.0,-0.632069238281,0.0526724365234,10.3812583984,1.0,0.0,0.0,0.0,1.0,0.0,0.0,0.0,1.0
1491900042146247120,811,1491900042145050036,,7.74640989304,-0.931761562824,90.0,0.00151500001084,1.0,0.0,0.0,0.0,1.0,0.0,0.0,0.0,1.0,-0.243902444839,2.5,-0.18292683363,1.0,0.0,0.0,0.0,1.0,0.0,0.0,0.0,1.0,-0.61770402832,-0.0143652099609,10.1992990723,1.0,0.0,0.0,0.0,1.0,0.0,0.0,0.0,1.0
