%time,field.header.seq,field.header.stamp,field.header.frame_id,field.orientation.x,field.orientation.y,field.orientation.z,field.orientation.w,field.orientation_covariance0,field.orientation_covariance1,field.orientation_covariance2,field.orientation_covariance3,field.orientation_covariance4,field.orientation_covariance5,field.orientation_covariance6,field.orientation_covariance7,field.orientation_covariance8,field.angular_velocity.x,field.angular_velocity.y,field.angular_velocity.z,field.angular_velocity_covariance0,field.angular_velocity_covariance1,field.angular_velocity_covariance2,field.angular_velocity_covariance3,field.angular_velocity_covariance4,field.angular_velocity_covariance5,field.angular_velocity_covariance6,field.angular_velocity_covariance7,field.angular_velocity_covariance8,field.linear_acceleration.x,field.linear_acceleration.y,field.linear_acceleration.z,field.linear_acceleration_covariance0,field.linear_acceleration_covariance1,field.linear_acceleration_covariance2,field.linear_acceleration_covariance3,field.linear_acceleration_covariance4,field.linear_acceleration_covariance5,field.linear_acceleration_covariance6,field.linear_acceleration_covariance7,field.linear_acceleration_covariance8
1491899976840068860,414,1491899976612667421,,7.87789106369,-1.08916962147,90.0,0.00107300002128,1.0,0.0,0.0,0.0,1.0,0.0,0.0,0.0,1.0,-0.548780500889,1.8902438879,-0.426829278469,1.0,0.0,0.0,0.0,1.0,0.0,0.0,0.0,1.0,-0.60812722168,0.0622492431641,10.314220752,1.0,0.0,0.0,0.0,1.0,0.0,0.0,0.0,1.0
1491899976840185318,415,1491899976632949142,,7.87666273117,-1.08579647541,90.0,0.00114299997222,1.0,0.0,0.0,0.0,1.0,0.0,0.0,0.0,1.0,-0.426829278469,1.8902438879,-0.548780500889,1.0,0.0,0.0,0.0,1.0,0.0,0.0,0.0,1.0,-0.555454785156,0.0430956298828,10.0843773926,1.0,0.0,0.0,0.0,1.0,0.0,0.0,0.0,1.0
1491899976840467089,416,1491899976654408520,,7.87115478516,-1.08688950539,90.0,0.0015569999814,1.0,0.0,0.0,0.0,1.0,0.0,0.0,0.0,1.0,-0.487804889679,2.07317066193,-0.365853667259,1.0,0.0,0.0,0.0,1.0,0.0,0.0,0.0,1.0,-0.555454785156,-0.0287304199219,10.3621047852,1.0,0.0,0.0,0.0,1.0,0.0,0.0,0.0,1.0
1491899976840840371,417,1491899976675116388,,7.86832141876,-1.0843641758,90.0,0.00116999994498,1.0,0.0,0.0,0.0,1.0,0.0,0.0,0.0,1.0,-0.304878056049,2.31707310677,-0.18292683363,1.0,0.0,0.0,0.0,1.0,0.0,0.0,0.0,1.0,-0.555454785156,-0.0383072265625,10.4866032715,1.0,0.0,0.0,0.0,1.0,0.0,0.0,0.0,1.0
1491899976841115839,418,1491899976695847693,,7.86678123474,-1.08223474026,90.0,0.00110100000165,1.0,0.0,0.0,0.0,1.0,0.0,0.0,0.0,1.0,-0.609756112099,2.43902444839,-0.18292683363,1.0,0.0,0.0,0.0,1.0,0.0,0.0,0.0,1.0,-0.627280834961,0.0239420166016,10.314220752,1.0,0.0,0.0,0.0,1.0,0.0,0.0,0.0,1.0
1491899976841259902,419,1491899976716574259,,7.86627864838,-1.07755410671,90.0,0.00111599999946,1.0,0.0,0.0,0.0,1.0,0.0,0.0,0.0,1.0,-0.609756112099,2.74390244484,0.0,1.0,0.0,0.0,0.0,1.0,0.0,0.0,0.0,1.0,-0.684741674805,-0.0287304199219,10.1370498291,1.0,0.0,0.0,0.0,1.0,0.0,0.0,0.0,1.0
1491899976841364121,420,1491899976737387022,,7.86600971222,-1.07405531406,90.0,0.00116400001571,1.0,0.0,0.0,0.0,1.0,0.0,0.0,0.0,1.0,-0.609756112099,2.56097555161,0.0609756112099,1.0,0.0,0.0,0.0,1.0,0.0,0.0,0.0,1.0,-0.627280834961,0.0287304199219,10.2423947021,1.0,0.0,0.0,0.0,1.0,0.0,0.0,0.0,1.0
1491899976841493756,421,1491899976758913640,,7.86835241318,-1.07035386562,90.0,0.00130300002638,1.0,0.0,0.0,0.0,1.0,0.0,0.0,0.0,1.0,-0.609756112099,2.43902444839,0.0,1.0,0.0,0.0,0.0,1.0,0.0,0.0,0.0,1.0,-0.679953271484,0.0622492431641,10.285490332,1.0,0.0,0.0,0.0,1.0,0.0,0.0,0.0,1.0
1491899976841642558,422,1491899976780217393,,7.86718034744,-1.07121765614,90.0,0.00116900005378,1.0,0.0,0.0,0.0,1.0,0.0,0.0,0.0,1.0,-0.731707334518,2.19512200356,-0.18292683363,1.0,0.0,0.0,0.0,1.0,0.0,0.0,0.0,1.0,-0.598550451572,-0.0191536132812,10.2519715088,1.0,0.0,0.0,0.0,1.0,0.0,0.0,0.0,1.0
1491899976841745735,423,1491899976801500104,,7.86789560318,-1.06879603863,90.0,0.00197000009939,1.0,0.0,0.0,0.0,1.0,0.0,0.0,0.0,1.0,-0.426829278469,2.25609779358,-0.18292683363,1.0,0.0,0.0,0.0,1.0,0.0,0.0,0.0,1.0,-0.565031591797,-0.0143652099609,10.2519715088,1.0,0.0,0.0,0.0,1.0,0.0,0.0,0.0,1.0
1491899976841850631,424,1491899976822768024,,7.87029600143,-1.06742596626,90.0,0.0011040000245,1.0,0.0,0.0,0.0,1.0,0.0,0.0,0.0,1.0,-0.609756112099,2.25609779358,0.0609756112099,1.0,0.0,0.0,0.0,1.0,0.0,0.0,0.0,1.0,-0.45968671875,0.0335188255255,10.3812583984,1.0,0.0,0.0,0.0,1.0,0.0,0.0,0.0,1.0
1491899976846590163,425,1491899976844369694,,7.86783695221,-1.06847321987,90.0,0.00149599998258,1.0,0.0,0.0,0.0,1.0,0.0,0.0,0.0,1.0,-0.487804889679,1.95121955872,-0.487804889679,1.0,0.0,0.0,0.0,1.0,0.0,0.0,0.0,1.0,-0.407014282227,-0.0335188255255,10.299855542,1.0,0.0,0.0,0.0,1.0,0.0,0.0,0.0,1.0
1491899976866280218,426,1491899976864408655,,7.86628913879,-1.06450760365,90.0,0.0010890000267,1.0,0.0,0.0,0.0,1.0,0.0,0.0,0.0,1.0,-0.365853667259,2.31707310677,-0.487804889679,1.0,0.0,0.0,0.0,1.0,0.0,0.0,0.0,1.0,-0.474051928711,-0.0718260498047,10.3668931885,1.0,0.0,0.0,0.0,1.0,0.0,0.0,0.0,1.0
1491899976888130898,427,1491899976885814023,,7.8659157753,-1.06179749966,90.0,0.0010450000409,1.0,0.0,0.0,0.0,1.0,0.0,0.0,0.0,1.0,-0.304878056049,2.37804889679,-0.18292683363,1.0,0.0,0.0,0.0,1.0,0.0,0.0,0.0,1.0,-0.550666381836,0.0430956298828,10.0891657959,1.0,0.0,0.0,0.0,1.0,0.0,0.0,0.0,1.0
1491899976909048037,428,1491899976906893974,,7.86293649673,-1.06192839146,90.0,0.00102700002026,1.0,0.0,0.0,0.0,1.0,0.0,0.0,0.0,1.0,-0.609756112099,2.19512200356,-0.243902444839,1.0,0.0,0.0,0.0,1.0,0.0,0.0,0.0,1.0,-0.569819995117,0.0718260498047,10.1945106689,1.0,0.0,0.0,0.0,1.0,0.0,0.0,0.0,1.0
1491899976930428665,429,1491899976928061217,,7.85787630081,-1.06162786484,90.0,0.000968999986071,1.0,0.0,0.0,0.0,1.0,0.0,0.0,0.0,1.0,-0.304878056049,2.43902444839,-0.487804889679,1.0,0.0,0.0,0.0,1.0,0.0,0.0,0.0,1.0,-0.732625708008,-0.0574608398438,10.3381627686,1.0,0.0,0.0,0.0,1.0,0.0,0.0,0.0,1.0
1491899976950807053,430,1491899976949091376,,7.85827970505,-1.05747687817,90.0,0.000997000024654,1.0,0.0,0.0,0.0,1.0,0.0,0.0,0.0,1.0,-0.548780500889,2.37804889679,-0.365853667259,1.0,0.0,0.0,0.0,1.0,0.0,0.0,0.0,1.0,-0.708683691406,0.110133276367,10.1083194092,1.0,0.0,0.0,0.0,1.0,0.0,0.0,0.0,1.0
1491899976971193515,431,1491899976969675650,,7.85657596588,-1.05752050877,90.0,0.000977999996394,1.0,0.0,0.0,0.0,1.0,0.0,0.0,0.0,1.0,-0.548780500889,2.43902444839,-0.365853667259,1.0,0.0,0.0,0.0,1.0,0.0,0.0,0.0,1.0,-0.660799658203,0.0861912597656,10.1226846191,1.0,0.0,0.0,0.0,1.0,0.0,0.0,0.0,1.0
1491899976998730029,432,1491899976990722163,,7.85468578339,-1.05264389515,90.0,0.00102800002787,1.0,0.0,0.0,0.0,1.0,0.0,0.0,0.0,1.0,-0.548780500889,2.31707310677,-0.609756112099,1.0,0.0,0.0,0.0,1.0,0.0,0.0,0.0,1.0,-0.579396801758,0.0191536132812,10.3046439453,1.0,0.0,0.0,0.0,1.0,0.0,0.0,0.0,1.0
1491899977014235969,433,1491899977012047948,,7.8610162735,-1.04767942429,90.0,0.000967999978457,1.0,0.0,0.0,0.0,1.0,0.0,0.0,0.0,1.0,-0.243902444839,2.37804889679,-0.426829278469,1.0,0.0,0.0,0.0,1.0,0.0,0.0,0.0,1.0,-0.651222851562,0.0191536132812,10.2232410889,1.0,0.0,0.0,0.0,1.0,0.0,0.0,0.0,1.0
1491899977039877639,434,1491899977032578992,,7.85767221451,-1.04655373096,90.0,0.00096700002905,1.0,0.0,0.0,0.0,1.0,0.0,0.0,0.0,1.0,-0.548780500889,2.13414645195,-0.304878056049,1.0,0.0,0.0,0.0,1.0,0.0,0.0,0.0,1.0,-0.603338854892,0.138863696289,10.1609918457,1.0,0.0,0.0,0.0,1.0,0.0,0.0,0.0,1.0
1491899977057624725,435,1491899977054491756,,7.85891151428,-1.04594218731,90.0,0.0013419999741,1.0,0.0,0.0,0.0,1.0,0.0,0.0,0.0,1.0,-0.365853667259,2.25609779358,0.12195122242,1.0,0.0,0.0,0.0,1.0,0.0,0.0,0.0,1.0,-0.560243188477,-0.0526724365234,10.285490332,1.0,0.0,0.0,0.0,1.0,0.0,0.0,0.0,1.0
1491899977078560457,436,1491899977075291655,,7.8603644371,-1.04453361034,90.0,0.00138899998274,1.0,0.0,0.0,0.0,1.0,0.0,0.0,0.0,1.0,-0.670731723309,2.43902444839,0.0609756112099,1.0,0.0,0.0,0.0,1.0,0.0,0.0,0.0,1.0,-0.536301208408,-0.0143652099609,10.3285859619,1.0,0.0,0.0,0.0,1.0,0.0,0.0,0.0,1.0
1491899977102588898,437,1491899977096667804,,7.8589630127,-1.04486370087,90.0,0.00112599995919,1.0,0.0,0.0,0.0,1.0,0.0,0.0,0.0,1.0,-0.365853667259,2.43902444839,-0.12195122242,1.0,0.0,0.0,0.0,1.0,0.0,0.0,0.0,1.0,-0.622492431641,0.0239420166016,10.3190091553,1.0,0.0,0.0,0.0,1.0,0.0,0.0,0.0,1.0
1491899977120790047,438,1491899977117257598,,7.8594379425,-1.04401123524,90.0,0.00107999995816,1.0,0.0,0.0,0.0,1.0,0.0,0.0,0.0,1.0,-0.365853667259,2.5,-0.304878056049,1.0,0.0,0.0,0.0,1.0,0.0,0.0,0.0,1.0,-0.579396801758,-0.067037651051,10.1897222656,1.0,0.0,0.0,0.0,1.0,0.0,0.0,0.0,1.0
1491899977141256508,439,1491899977138782810,,7.85897016525,-1.04143798351,90.0,0.00136100000236,1.0,0.0,0.0,0.0,1.0,0.0,0.0,0.0,1.0,-0.365853667259,2.25609779358,-0.0609756112099,1.0,0.0,0.0,0.0,1.0,0.0,0.0,0.0,1.0,-0.593762048251,0.00478840332031,10.2471831055,1.0,0.0,0.0,0.0,1.0,0.0,0.0,0.0,1.0
1491899977162265990,440,1491899977159220469,,7.86041307449,-1.04228293896,90.0,0.00109300005715,1.0,0.0,0.0,0.0,1.0,0.0,0.0,0.0,1.0,-0.548780500889,2.31707310677,-0.18292683363,1.0,0.0,0.0,0.0,1.0,0.0,0.0,0.0,1.0,-0.675164868164,-0.110133276367,10.165780249,1.0,0.0,0.0,0.0,1.0,0.0,0.0,0.0,1.0
1491899977184649691,441,1491899977180460576,,7.86141777039,-1.0424169302,90.0,0.00104200001806,1.0,0.0,0.0,0.0,1.0,0.0,0.0,0.0,1.0,-0.548780500889,2.13414645195,-0.487804889679,1.0,0.0,0.0,0.0,1.0,0.0,0.0,0.0,1.0,-0.469263525391,-0.0239420166016,10.3716815918,1.0,0.0,0.0,0.0,1.0,0.0,0.0,0.0,1.0
1491899977206215163,442,1491899977201873027,,7.85848903656,-1.0403316021,90.0,0.00116400001571,1.0,0.0,0.0,0.0,1.0,0.0,0.0,0.0,1.0,-0.609756112099,2.31707310677,-0.12195122242,1.0,0.0,0.0,0.0,1.0,0.0,0.0,0.0,1.0,-0.469263525391,-0.0239420166016,10.314220752,1.0,0.0,0.0,0.0,1.0,0.0,0.0,0.0,1.0
1491899977225978500,443,1491899977222894280,,7.85855293274,-1.03875470161,90.0,0.00101400003769,1.0,0.0,0.0,0.0,1.0,0.0,0.0,0.0,1.0,-0.670731723309,2.19512200356,-0.18292683363,1.0,0.0,0.0,0.0,1.0,0.0,0.0,0.0,1.0,-0.430956298828,0.067037651051,10.2711251221,1.0,0.0,0.0,0.0,1.0,0.0,0.0,0.0,1.0
1491899977246046367,444,1491899977243713554,,7.85956144333,-1.03825938702,90.0,0.000996000017039,1.0,0.0,0.0,0.0,1.0,0.0,0.0,0.0,1.0,-0.365853667259,2.31707310677,-0.304878056049,1.0,0.0,0.0,0.0,1.0,0.0,0.0,0.0,1.0,-0.45489831543,0.0909796630859,10.3860468018,1.0,0.0,0.0,0.0,1.0,0.0,0.0,0.0,1.0
1491899977266949026,445,1491899977264657724,,7.86091184616,-1.03682816029,90.0,0.00128299999051,1.0,0.0,0.0,0.0,1.0,0.0,0.0,0.0,1.0,-0.548780500889,2.31707310677,-0.609756112099,1.0,0.0,0.0,0.0,1.0,0.0,0.0,0.0,1.0,-0.440533105469,-0.0191536132812,10.3716815918,1.0,0.0,0.0,0.0,1.0,0.0,0.0,0.0,1.0
1491899977288658040,446,1491899977285767727,,7.8616771698,-1.03431952,90.0,0.00149799999781,1.0,0.0,0.0,0.0,1.0,0.0,0.0,0.0,1.0,-0.487804889679,2.56097555161,-0.365853667259,1.0,0.0,0.0,0.0,1.0,0.0,0.0,0.0,1.0,-0.531512805087,0.00478840332031,10.2376062988,1.0,0.0,0.0,0.0,1.0,0.0,0.0,0.0,1.0
1491899977308722834,447,1491899977305941636,,7.85652685165,-1.03119456768,90.0,0.00129599997308,1.0,0.0,0.0,0.0,1.0,0.0,0.0,0.0,1.0,-0.670731723309,2.37804889679,-0.426829278469,1.0,0.0,0.0,0.0,1.0,0.0,0.0,0.0,1.0,-0.612915625,0.0718260498047,10.1897222656,1.0,0.0,0.0,0.0,1.0,0.0,0.0,0.0,1.0
1491899977329559140,448,1491899977326301639,,7.85361623764,-1.02897512913,90.0,0.00101400003769,1.0,0.0,0.0,0.0,1.0,0.0,0.0,0.0,1.0,-0.670731723309,2.25609779358,-0.365853667259,1.0,0.0,0.0,0.0,1.0,0.0,0.0,0.0,1.0,-0.550666381836,0.0335188255255,10.2040874756,1.0,0.0,0.0,0.0,1.0,0.0,0.0,0.0,1.0
1491899977349782476,449,1491899977347329194,,7.84872102737,-1.02661991119,90.0,0.00120499997865,1.0,0.0,0.0,0.0,1.0,0.0,0.0,0.0,1.0,-0.487804889679,2.19512200356,-0.670731723309,1.0,0.0,0.0,0.0,1.0,0.0,0.0,0.0,1.0,-0.679953271484,-0.0526724365234,10.3190091553,1.0,0.0,0.0,0.0,1.0,0.0,0.0,0.0,1.0
1491899977370856594,450,1491899977368265499,,7.84306907654,-1.02370584011,90.0,0.00102700002026,1.0,0.0,0.0,0.0,1.0,0.0,0.0,0.0,1.0,-0.609756112099,2.37804889679,-0.365853667259,1.0,0.0,0.0,0.0,1.0,0.0,0.0,0.0,1.0,-0.61770402832,-0.119710083008,10.3285859619,1.0,0.0,0.0,0.0,1.0,0.0,0.0,0.0,1.0
1491899977391799513,451,1491899977389007325,,7.83769130707,-1.02291107178,90.0,0.00105900003109,1.0,0.0,0.0,0.0,1.0,0.0,0.0,0.0,1.0,-0.243902444839,2.37804889679,-0.304878056049,1.0,0.0,0.0,0.0,1.0,0.0,0.0,0.0,1.0,-0.675164868164,-0.0143652099609,10.1945106689,1.0,0.0,0.0,0.0,1.0,0.0,0.0,0.0,1.0
1491899977412836652,452,1491899977410014151,,7.83430433273,-1.02038633823,90.0,0.00102099997457,1.0,0.0,0.0,0.0,1.0,0.0,0.0,0.0,1.0,-0.426829278469,2.37804889679,-0.426829278469,1.0,0.0,0.0,0.0,1.0,0.0,0.0,0.0,1.0,-0.560243188477,0.0957680664062,10.1992990723,1.0,0.0,0.0,0.0,1.0,0.0,0.0,0.0,1.0
1491899977433844103,453,1491899977431317384,,7.83650255203,-1.02065646648,90.0,0.000984000042081,1.0,0.0,0.0,0.0,1.0,0.0,0.0,0.0,1.0,-0.426829278469,2.19512200356,-0.304878056049,1.0,0.0,0.0,0.0,1.0,0.0,0.0,0.0,1.0,-0.622492431641,-0.0383072265625,10.3477395752,1.0,0.0,0.0,0.0,1.0,0.0,0.0,0.0,1.0
1491899977455189054,454,1491899977452580668,,7.83987140656,-1.02023088932,90.0,0.00101699994411,1.0,0.0,0.0,0.0,1.0,0.0,0.0,0.0,1.0,-0.304878056049,2.13414645195,-0.304878056049,1.0,0.0,0.0,0.0,1.0,0.0,0.0,0.0,1.0,-0.60812722168,0.129286889648,10.0077629395,1.0,0.0,0.0,0.0,1.0,0.0,0.0,0.0,1.0
1491899977476557026,455,1491899977473845619,,7.83992242813,-1.01976168156,90.0,0.00104000000283,1.0,0.0,0.0,0.0,1.0,0.0,0.0,0.0,1.0,-0.487804889679,2.01219511032,-0.548780500889,1.0,0.0,0.0,0.0,1.0,0.0,0.0,0.0,1.0,-0.469263525391,-0.0622492431641,10.3860468018,1.0,0.0,0.0,0.0,1.0,0.0,0.0,0.0,1.0
1491899977496960206,456,1491899977495090830,,7.83839797974,-1.02114379406,90.0,0.00101300003007,1.0,0.0,0.0,0.0,1.0,0.0,0.0,0.0,1.0,-0.487804889679,2.25609779358,-0.243902444839,1.0,0.0,0.0,0.0,1.0,0.0,0.0,0.0,1.0,-0.622492431641,-0.0526724365234,10.3285859619,1.0,0.0,0.0,0.0,1.0,0.0,0.0,0.0,1.0
1491899977518371615,457,1491899977515924167,,7.83368015289,-1.01905977726,90.0,0.00109399994835,1.0,0.0,0.0,0.0,1.0,0.0,0.0,0.0,1.0,-0.487804889679,2.68292689323,-0.243902444839,1.0,0.0,0.0,0.0,1.0,0.0,0.0,0.0,1.0,-0.641646044922,0.0622492431641,10.1609918457,1.0,0.0,0.0,0.0,1.0,0.0,0.0,0.0,1.0
1491899977538599066,458,1491899977536715472,,7.8327703476,-1.02113056183,90.0,0.00103399995714,1.0,0.0,0.0,0.0,1.0,0.0,0.0,0.0,1.0,-0.487804889679,2.56097555161,-0.365853667259,1.0,0.0,0.0,0.0,1.0,0.0,0.0,0.0,1.0,-0.584185168546,0.00957680664062,10.180145459,1.0,0.0,0.0,0.0,1.0,0.0,0.0,0.0,1.0
1491899977561294225,459,1491899977558711985,,7.83123779297,-1.02409338951,90.0,0.00121000001673,1.0,0.0,0.0,0.0,1.0,0.0,0.0,0.0,1.0,-0.609756112099,2.13414645195,-0.0609756112099,1.0,0.0,0.0,0.0,1.0,0.0,0.0,0.0,1.0,-0.699106884766,-0.0478840332031,10.2088758789,1.0,0.0,0.0,0.0,1.0,0.0,0.0,0.0,1.0
1491899977581784749,460,1491899977578946780,,7.83128070831,-1.02477586269,90.0,0.00121100002434,1.0,0.0,0.0,0.0,1.0,0.0,0.0,0.0,1.0,-0.609756112099,2.13414645195,-0.0609756112099,1.0,0.0,0.0,0.0,1.0,0.0,0.0,0.0,1.0,-0.641646044922,0.00478840332031,10.1992990723,1.0,0.0,0.0,0.0,1.0,0.0,0.0,0.0,1.0
1491899977602204179,461,1491899977599921419,,7.83416366577,-1.02116310596,90.0,0.00203100009821,1.0,0.0,0.0,0.0,1.0,0.0,0.0,0.0,1.0,-0.609756112099,1.95121955872,-0.304878056049,1.0,0.0,0.0,0.0,1.0,0.0,0.0,0.0,1.0,-0.632069238281,0.0191536132812,10.2807019287,1.0,0.0,0.0,0.0,1.0,0.0,0.0,0.0,1.0
1491899977623851474,462,1491899977621057203,,7.83720779419,-1.02255606651,90.0,0.00139400002081,1.0,0.0,0.0,0.0,1.0,0.0,0.0,0.0,1.0,-0.487804889679,2.01219511032,-0.304878056049,1.0,0.0,0.0,0.0,1.0,0.0,0.0,0.0,1.0,-0.598550451572,-0.110133276367,10.2280294922,1.0,0.0,0.0,0.0,1.0,0.0,0.0,0.0,1.0
1491899977645555540,463,1491899977642010331,,7.83876991272,-1.02319848537,90.0,0.0010890000267,1.0,0.0,0.0,0.0,1.0,0.0,0.0,0.0,1.0,-0.365853667259,2.25609779358,-0.243902444839,1.0,0.0,0.0,0.0,1.0,0.0,0.0,0.0,1.0,-0.450109912109,0.0430956298828,10.1705686523,1.0,0.0,0.0,0.0,1.0,0.0,0.0,0.0,1.0
1491899977665457261,464,1491899977662615282,,7.84119462967,-1.02207410336,90.0,0.0012300000526,1.0,0.0,0.0,0.0,1.0,0.0,0.0,0.0,1.0,-0.548780500889,2.25609779358,-0.243902444839,1.0,0.0,0.0,0.0,1.0,0.0,0.0,0.0,1.0,-0.402225878906,0.0143652099609,10.2759135254,1.0,0.0,0.0,0.0,1.0,0.0,0.0,0.0,1.0
1491899977687235077,465,1491899977685285129,,7.84120416641,-1.02162396908,90.0,0.00102199998219,1.0,0.0,0.0,0.0,1.0,0.0,0.0,0.0,1.0,-0.304878056049,2.56097555161,-0.426829278469,1.0,0.0,0.0,0.0,1.0,0.0,0.0,0.0,1.0,-0.512359155273,-0.0814028564453,10.3094323486,1.0,0.0,0.0,0.0,1.0,0.0,0.0,0.0,1.0
1491899977707791226,466,1491899977705287996,,7.84106445312,-1.01980805397,90.0,0.00144100002944,1.0,0.0,0.0,0.0,1.0,0.0,0.0,0.0,1.0,-0.304878056049,2.43902444839,-0.304878056049,1.0,0.0,0.0,0.0,1.0,0.0,0.0,0.0,1.0,-0.474051928711,-0.0191536132812,10.2328178955,1.0,0.0,0.0,0.0,1.0,0.0,0.0,0.0,1.0
1491899977727616281,467,1491899977725790239,,7.84101247787,-1.01742601395,90.0,0.00115899997763,1.0,0.0,0.0,0.0,1.0,0.0,0.0,0.0,1.0,-0.609756112099,2.5,-0.18292683363,1.0,0.0,0.0,0.0,1.0,0.0,0.0,0.0,1.0,-0.536301208408,-0.0430956298828,10.2136642822,1.0,0.0,0.0,0.0,1.0,0.0,0.0,0.0,1.0
1491899977748584096,468,1491899977747006127,,7.8432135582,-1.01806020737,90.0,0.0010529999854,1.0,0.0,0.0,0.0,1.0,0.0,0.0,0.0,1.0,-0.487804889679,2.68292689323,-0.548780500889,1.0,0.0,0.0,0.0,1.0,0.0,0.0,0.0,1.0,-0.574608398438,-0.0335188255255,10.314220752,1.0,0.0,0.0,0.0,1.0,0.0,0.0,0.0,1.0
1491899977769942172,469,1491899977767512589,,7.84352064133,-1.01672720909,90.0,0.00105099997018,1.0,0.0,0.0,0.0,1.0,0.0,0.0,0.0,1.0,-0.670731723309,2.43902444839,-0.243902444839,1.0,0.0,0.0,0.0,1.0,0.0,0.0,0.0,1.0,-0.670376464844,0.0909796630859,10.3285859619,1.0,0.0,0.0,0.0,1.0,0.0,0.0,0.0,1.0
1491899977790544519,470,1491899977788372748,,7.84494066238,-1.01550447941,90.0,0.0010229999898,1.0,0.0,0.0,0.0,1.0,0.0,0.0,0.0,1.0,-0.487804889679,2.19512200356,-0.304878056049,1.0,0.0,0.0,0.0,1.0,0.0,0.0,0.0,1.0,-0.804451757813,-0.076614453125,10.3477395752,1.0,0.0,0.0,0.0,1.0,0.0,0.0,0.0,1.0
1491899977812170616,471,1491899977809668168,,7.83971452713,-1.01448428631,90.0,0.00104100001045,1.0,0.0,0.0,0.0,1.0,0.0,0.0,0.0,1.0,-0.243902444839,2.19512200356,-0.0609756112099,1.0,0.0,0.0,0.0,1.0,0.0,0.0,0.0,1.0,-0.742202514648,0.0718260498047,10.1466266357,1.0,0.0,0.0,0.0,1.0,0.0,0.0,0.0,1.0
1491899977832484682,472,1491899977830373015,,7.8404083252,-1.01315629482,90.0,0.000995000009425,1.0,0.0,0.0,0.0,1.0,0.0,0.0,0.0,1.0,-0.609756112099,2.07317066193,-0.304878056049,1.0,0.0,0.0,0.0,1.0,0.0,0.0,0.0,1.0,-0.656011254883,-0.0239420166016,10.3381627686,1.0,0.0,0.0,0.0,1.0,0.0,0.0,0.0,1.0
1491899977853919945,473,1491899977851687080,,7.8409204483,-1.01062738895,90.0,0.00118899997324,1.0,0.0,0.0,0.0,1.0,0.0,0.0,0.0,1.0,-0.18292683363,2.19512200356,0.0,1.0,0.0,0.0,0.0,1.0,0.0,0.0,0.0,1.0,-0.684741674805,0.0478840332031,10.1992990723,1.0,0.0,0.0,0.0,1.0,0.0,0.0,0.0,1.0
1491899977877787553,474,1491899977872806354,,7.83808135986,-1.00874781609,90.0,0.00101400003769,1.0,0.0,0.0,0.0,1.0,0.0,0.0,0.0,1.0,-0.548780500889,2.07317066193,-0.548780500889,1.0,0.0,0.0,0.0,1.0,0.0,0.0,0.0,1.0,-0.579396801758,0.0239420166016,10.0125513428,1.0,0.0,0.0,0.0,1.0,0.0,0.0,0.0,1.0
1491899977898836514,475,1491899977893649430,,7.83505153656,-1.00946712494,90.0,0.00101300003007,1.0,0.0,0.0,0.0,1.0,0.0,0.0,0.0,1.0,-0.426829278469,2.25609779358,-0.426829278469,1.0,0.0,0.0,0.0,1.0,0.0,0.0,0.0,1.0,-0.526724328702,-0.110133276367,10.3190091553,1.0,0.0,0.0,0.0,1.0,0.0,0.0,0.0,1.0
1491899977918419382,476,1491899977914659850,,7.83637666702,-1.00784826279,90.0,0.0010150000453,1.0,0.0,0.0,0.0,1.0,0.0,0.0,0.0,1.0,-0.426829278469,2.37804889679,-0.548780500889,1.0,0.0,0.0,0.0,1.0,0.0,0.0,0.0,1.0,-0.656011254883,-0.0143652099609,10.3668931885,1.0,0.0,0.0,0.0,1.0,0.0,0.0,0.0,1.0
1491899977945869490,477,1491899977935912457,,7.8377289772,-1.00753927231,90.0,0.000977999996394,1.0,0.0,0.0,0.0,1.0,0.0,0.0,0.0,1.0,-0.609756112099,2.80487799644,-0.0609756112099,1.0,0.0,0.0,0.0,1.0,0.0,0.0,0.0,1.0,-0.579396801758,0.0191536132812,10.1753570557,1.0,0.0,0.0,0.0,1.0,0.0,0.0,0.0,1.0
1491899977964203711,478,1491899977956803502,,7.83888292313,-1.00796604156,90.0,0.0010229999898,1.0,0.0,0.0,0.0,1.0,0.0,0.0,0.0,1.0,-0.487804889679,2.74390244484,-0.12195122242,1.0,0.0,0.0,0.0,1.0,0.0,0.0,0.0,1.0,-0.526724328702,-0.0909796630859,10.1178962158,1.0,0.0,0.0,0.0,1.0,0.0,0.0,0.0,1.0
1491899977980564703,479,1491899977977432359,,7.83963012695,-1.00696051121,90.0,0.00106499996036,1.0,0.0,0.0,0.0,1.0,0.0,0.0,0.0,1.0,-0.548780500889,2.13414645195,-0.243902444839,1.0,0.0,0.0,0.0,1.0,0.0,0.0,0.0,1.0,-0.60812722168,-0.00478840332031,10.0939541992,1.0,0.0,0.0,0.0,1.0,0.0,0.0,0.0,1.0
1491899978001963560,480,1491899977998872779,,7.84105300903,-1.00888502598,90.0,0.00109200004954,1.0,0.0,0.0,0.0,1.0,0.0,0.0,0.0,1.0,-0.426829278469,2.43902444839,-0.12195122242,1.0,0.0,0.0,0.0,1.0,0.0,0.0,0.0,1.0,-0.689530078125,-0.0383072265625,10.2471831055,1.0,0.0,0.0,0.0,1.0,0.0,0.0,0.0,1.0
1491899978022023199,481,1491899978019275073,,7.8421664238,-1.00755226612,90.0,0.00138699996751,1.0,0.0,0.0,0.0,1.0,0.0,0.0,0.0,1.0,-0.243902444839,2.07317066193,-0.0609756112099,1.0,0.0,0.0,0.0,1.0,0.0,0.0,0.0,1.0,-0.641646044922,-0.0143652099609,10.2232410889,1.0,0.0,0.0,0.0,1.0,0.0,0.0,0.0,1.0
1491899978042416848,482,1491899978040601222,,7.8404211998,-1.01029932499,90.0,0.00108800001908,1.0,0.0,0.0,0.0,1.0,0.0,0.0,0.0,1.0,-0.792682945728,1.8292683363,-0.12195122242,1.0,0.0,0.0,0.0,1.0,0.0,0.0,0.0,1.0,-0.541089611728,-0.0526724365234,10.4004120117,1.0,0.0,0.0,0.0,1.0,0.0,0.0,0.0,1.0
1491899978066586174,483,1491899978061072996,,7.83780670166,-1.00937664509,90.0,0.00109200004954,1.0,0.0,0.0,0.0,1.0,0.0,0.0,0.0,1.0,-0.365853667259,1.8292683363,-0.12195122242,1.0,0.0,0.0,0.0,1.0,0.0,0.0,0.0,1.0,-0.526724328702,-0.110133276367,10.314220752,1.0,0.0,0.0,0.0,1.0,0.0,0.0,0.0,1.0
1491899978087131542,484,1491899978081546385,,7.83675003052,-1.00910878181,90.0,0.00106200005393,1.0,0.0,0.0,0.0,1.0,0.0,0.0,0.0,1.0,-0.304878056049,2.13414645195,-0.365853667259,1.0,0.0,0.0,0.0,1.0,0.0,0.0,0.0,1.0,-0.531512805087,0.0430956298828,10.2328178955,1.0,0.0,0.0,0.0,1.0,0.0,0.0,0.0,1.0
1491899978106844201,485,1491899978102808002,,7.83479738235,-1.00613844395,90.0,0.000987999956124,1.0,0.0,0.0,0.0,1.0,0.0,0.0,0.0,1.0,-0.18292683363,2.25609779358,-0.304878056049,1.0,0.0,0.0,0.0,1.0,0.0,0.0,0.0,1.0,-0.488417138672,0.0239420166016,10.2950671387,1.0,0.0,0.0,0.0,1.0,0.0,0.0,0.0,1.0
1491899978127550975,486,1491899978123652224,,7.83247184753,-1.00411140919,90.0,0.00101999996696,1.0,0.0,0.0,0.0,1.0,0.0,0.0,0.0,1.0,-0.548780500889,2.43902444839,-0.609756112099,1.0,0.0,0.0,0.0,1.0,0.0,0.0,0.0,1.0,-0.488417138672,-0.00478840332031,10.3094323486,1.0,0.0,0.0,0.0,1.0,0.0,0.0,0.0,1.0
1491899978146617644,487,1491899978144771029,,7.83184099197,-1.00248289108,90.0,0.00155899999663,1.0,0.0,0.0,0.0,1.0,0.0,0.0,0.0,1.0,-0.731707334518,2.62195134163,-0.18292683363,1.0,0.0,0.0,0.0,1.0,0.0,0.0,0.0,1.0,-0.502782348633,-0.00478840332031,10.4243540283,1.0,0.0,0.0,0.0,1.0,0.0,0.0,0.0,1.0
1491899978169178689,488,1491899978165907386,,7.83518648148,-1.00212073326,90.0,0.00113300001249,1.0,0.0,0.0,0.0,1.0,0.0,0.0,0.0,1.0,-0.304878056049,2.62195134163,-0.304878056049,1.0,0.0,0.0,0.0,1.0,0.0,0.0,0.0,1.0,-0.622492431641,-0.0143652099609,10.1370498291,1.0,0.0,0.0,0.0,1.0,0.0,0.0,0.0,1.0
1491899978188931348,489,1491899978186485098,,7.83795833588,-0.999998152256,90.0,0.000988999963738,1.0,0.0,0.0,0.0,1.0,0.0,0.0,0.0,1.0,-0.426829278469,2.62195134163,-0.670731723309,1.0,0.0,0.0,0.0,1.0,0.0,0.0,0.0,1.0,-0.632069238281,0.119710083008,10.2950671387,1.0,0.0,0.0,0.0,1.0,0.0,0.0,0.0,1.0
1491899978209338539,490,1491899978207706195,,7.83844089508,-1.00078582764,90.0,0.00098600005731,1.0,0.0,0.0,0.0,1.0,0.0,0.0,0.0,1.0,-0.426829278469,2.5,-0.548780500889,1.0,0.0,0.0,0.0,1.0,0.0,0.0,0.0,1.0,-0.689530078125,0.0,10.2615483154,1.0,0.0,0.0,0.0,1.0,0.0,0.0,0.0,1.0
1491899978230476615,491,1491899978228724531,,7.83774995804,-1.00106215477,90.0,0.000957000011113,1.0,0.0,0.0,0.0,1.0,0.0,0.0,0.0,1.0,-0.670731723309,2.25609779358,-0.365853667259,1.0,0.0,0.0,0.0,1.0,0.0,0.0,0.0,1.0,-0.670376464844,-0.0430956298828,10.0412817627,1.0,0.0,0.0,0.0,1.0,0.0,0.0,0.0,1.0
1491899978253242399,492,1491899978249957451,,7.83565187454,-0.999645233154,90.0,0.00099400000181,1.0,0.0,0.0,0.0,1.0,0.0,0.0,0.0,1.0,-0.487804889679,2.13414645195,-0.487804889679,1.0,0.0,0.0,0.0,1.0,0.0,0.0,0.0,1.0,-0.675164868164,0.0478840332031,10.1992990723,1.0,0.0,0.0,0.0,1.0,0.0,0.0,0.0,1.0
1491899978273163496,493,1491899978270924589,,7.83539199829,-1.00062203407,90.0,0.00100599997677,1.0,0.0,0.0,0.0,1.0,0.0,0.0,0.0,1.0,-0.426829278469,2.07317066193,-0.365853667259,1.0,0.0,0.0,0.0,1.0,0.0,0.0,0.0,1.0,-0.483628735352,-0.0143652099609,10.3908352051,1.0,0.0,0.0,0.0,1.0,0.0,0.0,0.0,1.0
1491899978294321311,494,1491899978291551623,,7.83241319656,-0.997950732708,90.0,0.001007999992,1.0,0.0,0.0,0.0,1.0,0.0,0.0,0.0,1.0,-0.304878056049,2.43902444839,-0.243902444839,1.0,0.0,0.0,0.0,1.0,0.0,0.0,0.0,1.0,-0.636857641602,-0.0287304199219,10.3429511719,1.0,0.0,0.0,0.0,1.0,0.0,0.0,0.0,1.0
1491899978315010533,495,1491899978312867824,,7.82699155807,-0.995647072792,90.0,0.00096700002905,1.0,0.0,0.0,0.0,1.0,0.0,0.0,0.0,1.0,-0.426829278469,2.13414645195,-0.426829278469,1.0,0.0,0.0,0.0,1.0,0.0,0.0,0.0,1.0,-0.670376464844,0.15801730957,10.2519715088,1.0,0.0,0.0,0.0,1.0,0.0,0.0,0.0,1.0
1491899978335120380,496,1491899978333389807,,7.82700109482,-0.995944917202,90.0,0.000961999990977,1.0,0.0,0.0,0.0,1.0,0.0,0.0,0.0,1.0,-0.548780500889,2.13414645195,-0.426829278469,1.0,0.0,0.0,0.0,1.0,0.0,0.0,0.0,1.0,-0.517147558594,0.00478840332031,10.2759135254,1.0,0.0,0.0,0.0,1.0,0.0,0.0,0.0,1.0
1491899978355932570,497,1491899978354125070,,7.82510375977,-0.994092047215,90.0,0.00106299994513,1.0,0.0,0.0,0.0,1.0,0.0,0.0,0.0,1.0,-0.12195122242,2.07317066193,-0.18292683363,1.0,0.0,0.0,0.0,1.0,0.0,0.0,0.0,1.0,-0.521935925381,-0.0287304199219,10.314220752,1.0,0.0,0.0,0.0,1.0,0.0,0.0,0.0,1.0
1491899978377059813,498,1491899978375519031,,7.82381772995,-0.993500947952,90.0,0.00101400003769,1.0,0.0,0.0,0.0,1.0,0.0,0.0,0.0,1.0,-0.243902444839,2.5,-0.0609756112099,1.0,0.0,0.0,0.0,1.0,0.0,0.0,0.0,1.0,-0.703895288086,0.0861912597656,10.2232410889,1.0,0.0,0.0,0.0,1.0,0.0,0.0,0.0,1.0
1491899978404767473,499,1491899978400612837,,7.82214069366,-0.993952870369,90.0,0.00104100001045,1.0,0.0,0.0,0.0,1.0,0.0,0.0,0.0,1.0,-0.304878056049,2.01219511032,-0.487804889679,1.0,0.0,0.0,0.0,1.0,0.0,0.0,0.0,1.0,-0.574608398438,0.0622492431641,10.2567599121,1.0,0.0,0.0,0.0,1.0,0.0,0.0,0.0,1.0
1491899978418877892,500,1491899978417064715,,7.82528114319,-0.994771718979,90.0,0.00113800005056,1.0,0.0,0.0,0.0,1.0,0.0,0.0,0.0,1.0,-0.18292683363,2.56097555161,-0.12195122242,1.0,0.0,0.0,0.0,1.0,0.0,0.0,0.0,1.0,-0.679953271484,-0.0335188255255,10.3237975586,1.0,0.0,0.0,0.0,1.0,0.0,0.0,0.0,1.0
1491899978443471802,501,1491899978439620135,,7.82744264603,-0.994064092636,90.0,0.00114599999506,1.0,0.0,0.0,0.0,1.0,0.0,0.0,0.0,1.0,-0.548780500889,2.19512200356,0.0,1.0,0.0,0.0,0.0,1.0,0.0,0.0,0.0,1.0,-0.632069238281,0.0718260498047,10.4147772217,1.0,0.0,0.0,0.0,1.0,0.0,0.0,0.0,1.0
1491899978461567534,502,1491899978458972950,,7.8294262886,-0.992277860641,90.0,0.00128500000574,1.0,0.0,0.0,0.0,1.0,0.0,0.0,0.0,1.0,-0.548780500889,1.95121955872,0.0609756112099,1.0,0.0,0.0,0.0,1.0,0.0,0.0,0.0,1.0,-0.627280834961,-0.0143652099609,10.2232410889,1.0,0.0,0.0,0.0,1.0,0.0,0.0,0.0,1.0
1491899978485851235,503,1491899978481617380,,7.82939863205,-0.987467825413,90.0,0.00228999997489,1.0,0.0,0.0,0.0,1.0,0.0,0.0,0.0,1.0,-0.304878056049,1.8292683363,-0.18292683363,1.0,0.0,0.0,0.0,1.0,0.0,0.0,0.0,1.0,-0.521935925381,-0.0191536132812,10.2902787354,1.0,0.0,0.0,0.0,1.0,0.0,0.0,0.0,1.0
1491899978505358634,504,1491899978502563321,,7.82797861099,-0.987072229385,90.0,0.00265099992976,1.0,0.0,0.0,0.0,1.0,0.0,0.0,0.0,1.0,-0.426829278469,2.25609779358,-0.243902444839,1.0,0.0,0.0,0.0,1.0,0.0,0.0,0.0,1.0,-0.440533105469,-0.0191536132812,10.2759135254,1.0,0.0,0.0,0.0,1.0,0.0,0.0,0.0,1.0
1491899978526629366,505,1491899978523981189,,7.82585477829,-0.986648499966,90.0,0.00172499998007,1.0,0.0,0.0,0.0,1.0,0.0,0.0,0.0,1.0,-0.243902444839,2.31707310677,-0.365853667259,1.0,0.0,0.0,0.0,1.0,0.0,0.0,0.0,1.0,-0.507570751953,0.0526724365234,10.4147772217,1.0,0.0,0.0,0.0,1.0,0.0,0.0,0.0,1.0
1491899978546856140,506,1491899978545239837,,7.82335567474,-0.985176384449,90.0,0.00104100001045,1.0,0.0,0.0,0.0,1.0,0.0,0.0,0.0,1.0,-0.609756112099,2.62195134163,-0.548780500889,1.0,0.0,0.0,0.0,1.0,0.0,0.0,0.0,1.0,-0.541089611728,-0.0574608398438,10.314220752,1.0,0.0,0.0,0.0,1.0,0.0,0.0,0.0,1.0
1491899978569044216,507,1491899978566049788,,7.82663393021,-0.986027598381,90.0,0.00112499995157,1.0,0.0,0.0,0.0,1.0,0.0,0.0,0.0,1.0,-0.487804889679,2.62195134163,-0.365853667259,1.0,0.0,0.0,0.0,1.0,0.0,0.0,0.0,1.0,-0.622492431641,0.00478840332031,10.2280294922,1.0,0.0,0.0,0.0,1.0,0.0,0.0,0.0,1.0
1491899978589575938,508,1491899978586653646,,7.82470178604,-0.985514223576,90.0,0.00104899995495,1.0,0.0,0.0,0.0,1.0,0.0,0.0,0.0,1.0,-0.609756112099,2.37804889679,-0.426829278469,1.0,0.0,0.0,0.0,1.0,0.0,0.0,0.0,1.0,-0.555454785156,0.0909796630859,10.1466266357,1.0,0.0,0.0,0.0,1.0,0.0,0.0,0.0,1.0
1491899978609511357,509,1491899978607880055,,7.82747507095,-0.985125362873,90.0,0.00104300002567,1.0,0.0,0.0,0.0,1.0,0.0,0.0,0.0,1.0,-0.0609756112099,2.43902444839,-0.365853667259,1.0,0.0,0.0,0.0,1.0,0.0,0.0,0.0,1.0,-0.651222851562,-0.0526724365234,10.3668931885,1.0,0.0,0.0,0.0,1.0,0.0,0.0,0.0,1.0
1491899978632076465,510,1491899978629006048,,7.82871770859,-0.984895408154,90.0,0.00105900003109,1.0,0.0,0.0,0.0,1.0,0.0,0.0,0.0,1.0,-0.243902444839,2.19512200356,-0.548780500889,1.0,0.0,0.0,0.0,1.0,0.0,0.0,0.0,1.0,-0.723048901367,-0.00478840332031,10.3381627686,1.0,0.0,0.0,0.0,1.0,0.0,0.0,0.0,1.0
1491899978653263551,511,1491899978649813342,,7.82826805115,-0.985121250153,90.0,0.00101000000723,1.0,0.0,0.0,0.0,1.0,0.0,0.0,0.0,1.0,-0.365853667259,2.25609779358,-0.365853667259,1.0,0.0,0.0,0.0,1.0,0.0,0.0,0.0,1.0,-0.684741674805,0.0430956298828,10.1514150391,1.0,0.0,0.0,0.0,1.0,0.0,0.0,0.0,1.0
1491899978672224127,512,1491899978670577408,,7.83088111877,-0.984208166599,90.0,0.00101999996696,1.0,0.0,0.0,0.0,1.0,0.0,0.0,0.0,1.0,-0.304878056049,2.25609779358,-0.487804889679,1.0,0.0,0.0,0.0,1.0,0.0,0.0,0.0,1.0,-0.569819995117,-0.0430956298828,10.2902787354,1.0,0.0,0.0,0.0,1.0,0.0,0.0,0.0,1.0
1491899978694264963,513,1491899978691231473,,7.83350801468,-0.983904540539,90.0,0.00102199998219,1.0,0.0,0.0,0.0,1.0,0.0,0.0,0.0,1.0,-0.243902444839,2.25609779358,-0.426829278469,1.0,0.0,0.0,0.0,1.0,0.0,0.0,0.0,1.0,-0.565031591797,0.00957680664062,10.2902787354,1.0,0.0,0.0,0.0,1.0,0.0,0.0,0.0,1.0
1491899978720184707,514,1491899978712599341,,7.83320951462,-0.981976211071,90.0,0.00100699998438,1.0,0.0,0.0,0.0,1.0,0.0,0.0,0.0,1.0,-0.487804889679,2.07317066193,-0.18292683363,1.0,0.0,0.0,0.0,1.0,0.0,0.0,0.0,1.0,-0.569819995117,0.167594116211,10.0748005859,1.0,0.0,0.0,0.0,1.0,0.0,0.0,0.0,1.0
1491899978737263667,515,1491899978733335282,,7.83556318283,-0.980726718903,90.0,0.00101200002246,1.0,0.0,0.0,0.0,1.0,0.0,0.0,0.0,1.0,-0.548780500889,2.31707310677,-0.426829278469,1.0,0.0,0.0,0.0,1.0,0.0,0.0,0.0,1.0,-0.478840332031,-0.0335188255255,10.2902787354,1.0,0.0,0.0,0.0,1.0,0.0,0.0,0.0,1.0
1491899978764822734,516,1491899978754789555,,7.8366689682,-0.979840040207,90.0,0.00102800002787,1.0,0.0,0.0,0.0,1.0,0.0,0.0,0.0,1.0,-0.365853667259,2.5,-0.487804889679,1.0,0.0,0.0,0.0,1.0,0.0,0.0,0.0,1.0,-0.603338854892,0.076614453125,10.3764699951,1.0,0.0,0.0,0.0,1.0,0.0,0.0,0.0,1.0
1491899978784066851,517,1491899978775557006,,7.83930969238,-0.976125478745,90.0,0.00101000000723,1.0,0.0,0.0,0.0,1.0,0.0,0.0,0.0,1.0,-0.304878056049,2.68292689323,0.0,1.0,0.0,0.0,0.0,1.0,0.0,0.0,0.0,1.0,-0.679953271484,0.0430956298828,10.1274730225,1.0,0.0,0.0,0.0,1.0,0.0,0.0,0.0,1.0
1491899978802500708,518,1491899978796821228,,7.84099292755,-0.977059543133,90.0,0.00106999999844,1.0,0.0,0.0,0.0,1.0,0.0,0.0,0.0,1.0,-0.487804889679,2.74390244484,-0.365853667259,1.0,0.0,0.0,0.0,1.0,0.0,0.0,0.0,1.0,-0.684741674805,-0.0239420166016,10.2615483154,1.0,0.0,0.0,0.0,1.0,0.0,0.0,0.0,1.0
1491899978821414357,519,1491899978817370867,,7.8413066864,-0.979341924191,90.0,0.00109499995597,1.0,0.0,0.0,0.0,1.0,0.0,0.0,0.0,1.0,-0.426829278469,2.31707310677,-0.18292683363,1.0,0.0,0.0,0.0,1.0,0.0,0.0,0.0,1.0,-0.656011254883,-0.0526724365234,10.2759135254,1.0,0.0,0.0,0.0,1.0,0.0,0.0,0.0,1.0
1491899978847070454,520,1491899978838205505,,7.8430724144,-0.979379296303,90.0,0.00111099996138,1.0,0.0,0.0,0.0,1.0,0.0,0.0,0.0,1.0,-0.243902444839,2.25609779358,-0.0609756112099,1.0,0.0,0.0,0.0,1.0,0.0,0.0,0.0,1.0,-0.670376464844,-0.0143652099609,10.2807019287,1.0,0.0,0.0,0.0,1.0,0.0,0.0,0.0,1.0
1491899978862555248,521,1491899978859384623,,7.83798408508,-0.976345598698,90.0,0.00137700000778,1.0,0.0,0.0,0.0,1.0,0.0,0.0,0.0,1.0,-0.609756112099,2.07317066193,-0.12195122242,1.0,0.0,0.0,0.0,1.0,0.0,0.0,0.0,1.0,-0.584185168546,0.0383072265625,10.3477395752,1.0,0.0,0.0,0.0,1.0,0.0,0.0,0.0,1.0
1491899978883278637,522,1491899978880494053,,7.83817720413,-0.97574031353,90.0,0.00108499999624,1.0,0.0,0.0,0.0,1.0,0.0,0.0,0.0,1.0,-0.426829278469,2.25609779358,-0.18292683363,1.0,0.0,0.0,0.0,1.0,0.0,0.0,0.0,1.0,-0.555454785156,-0.0478840332031,10.2232410889,1.0,0.0,0.0,0.0,1.0,0.0,0.0,0.0,1.0
1491899978904376244,523,1491899978901277962,,7.83516931534,-0.972133696079,90.0,0.0061220000498,1.0,0.0,0.0,0.0,1.0,0.0,0.0,0.0,1.0,-0.426829278469,2.37804889679,-0.426829278469,1.0,0.0,0.0,0.0,1.0,0.0,0.0,0.0,1.0,-0.555454785156,0.0335188255255,10.1753570557,1.0,0.0,0.0,0.0,1.0,0.0,0.0,0.0,1.0
1491899978924607341,524,1491899978922205569,,7.83672761917,-0.97205221653,90.0,0.00100100005511,1.0,0.0,0.0,0.0,1.0,0.0,0.0,0.0,1.0,-0.487804889679,2.01219511032,-0.365853667259,1.0,0.0,0.0,0.0,1.0,0.0,0.0,0.0,1.0,-0.450109912109,0.0861912597656,10.1562034424,1.0,0.0,0.0,0.0,1.0,0.0,0.0,0.0,1.0
1491899978946687604,525,1491899978944094427,,7.84217166901,-0.972951710224,90.0,0.00109999999404,1.0,0.0,0.0,0.0,1.0,0.0,0.0,0.0,1.0,-0.365853667259,2.37804889679,-0.487804889679,1.0,0.0,0.0,0.0,1.0,0.0,0.0,0.0,1.0,-0.502782348633,-0.0478840332031,10.3429511719,1.0,0.0,0.0,0.0,1.0,0.0,0.0,0.0,1.0
1491899978966552243,526,1491899978964372763,,7.84102106094,-0.968695998192,90.0,0.00136300001759,1.0,0.0,0.0,0.0,1.0,0.0,0.0,0.0,1.0,-0.18292683363,2.37804889679,-0.731707334518,1.0,0.0,0.0,0.0,1.0,0.0,0.0,0.0,1.0,-0.435744702148,-0.0287304199219,10.3333743652,1.0,0.0,0.0,0.0,1.0,0.0,0.0,0.0,1.0
1491899978988501829,527,1491899978985001933,,7.83936309814,-0.971831023693,90.0,0.00148700003047,1.0,0.0,0.0,0.0,1.0,0.0,0.0,0.0,1.0,-0.426829278469,2.5,-0.304878056049,1.0,0.0,0.0,0.0,1.0,0.0,0.0,0.0,1.0,-0.550666381836,-0.0478840332031,10.2711251221,1.0,0.0,0.0,0.0,1.0,0.0,0.0,0.0,1.0
1491899979009746780,528,1491899979006999176,,7.83522987366,-0.972032725811,90.0,0.00144699995872,1.0,0.0,0.0,0.0,1.0,0.0,0.0,0.0,1.0,-0.365853667259,2.31707310677,-0.609756112099,1.0,0.0,0.0,0.0,1.0,0.0,0.0,0.0,1.0,-0.646434448242,0.0239420166016,10.3764699951,1.0,0.0,0.0,0.0,1.0,0.0,0.0,0.0,1.0
1491899979029817721,529,1491899979027316783,,7.83431625366,-0.971489012241,90.0,0.00107999995816,1.0,0.0,0.0,0.0,1.0,0.0,0.0,0.0,1.0,-0.609756112099,2.56097555161,-0.18292683363,1.0,0.0,0.0,0.0,1.0,0.0,0.0,0.0,1.0,-0.670376464844,-0.0143652099609,10.2711251221,1.0,0.0,0.0,0.0,1.0,0.0,0.0,0.0,1.0
1491899979050503974,530,1491899979048409807,,7.82900571823,-0.970609486103,90.0,0.000991999986582,1.0,0.0,0.0,0.0,1.0,0.0,0.0,0.0,1.0,-0.365853667259,2.5,-0.0609756112099,1.0,0.0,0.0,0.0,1.0,0.0,0.0,0.0,1.0,-0.699106884766,-0.0191536132812,10.2759135254,1.0,0.0,0.0,0.0,1.0,0.0,0.0,0.0,1.0
1491899979071627362,531,1491899979069059862,,7.82297325134,-0.976379752159,90.0,0.000968999986071,1.0,0.0,0.0,0.0,1.0,0.0,0.0,0.0,1.0,-0.670731723309,2.62195134163,-0.243902444839,1.0,0.0,0.0,0.0,1.0,0.0,0.0,0.0,1.0,-0.76614453125,0.0718260498047,10.2184526855,1.0,0.0,0.0,0.0,1.0,0.0,0.0,0.0,1.0
1491899979092751688,532,1491899979090421740,,7.81827974319,-0.974243104458,90.0,0.000997000024654,1.0,0.0,0.0,0.0,1.0,0.0,0.0,0.0,1.0,-0.304878056049,2.5,-0.426829278469,1.0,0.0,0.0,0.0,1.0,0.0,0.0,0.0,1.0,-0.612915625,-0.0191536132812,10.2328178955,1.0,0.0,0.0,0.0,1.0,0.0,0.0,0.0,1.0
1491899979114901795,533,1491899979111688045,,7.81405639648,-0.973873198032,90.0,0.000990999978967,1.0,0.0,0.0,0.0,1.0,0.0,0.0,0.0,1.0,-0.487804889679,2.13414645195,-0.426829278469,1.0,0.0,0.0,0.0,1.0,0.0,0.0,0.0,1.0,-0.588973571866,-0.0239420166016,10.3668931885,1.0,0.0,0.0,0.0,1.0,0.0,0.0,0.0,1.0
1491899979134479767,534,1491899979132506017,,7.80819702148,-0.97517323494,90.0,0.000962999998592,1.0,0.0,0.0,0.0,1.0,0.0,0.0,0.0,1.0,-0.487804889679,2.01219511032,-0.243902444839,1.0,0.0,0.0,0.0,1.0,0.0,0.0,0.0,1.0,-0.584185168546,0.0526724365234,10.165780249,1.0,0.0,0.0,0.0,1.0,0.0,0.0,0.0,1.0
1491899979156790343,535,1491899979153270082,,7.81011009216,-0.975270152092,90.0,0.000999000039883,1.0,0.0,0.0,0.0,1.0,0.0,0.0,0.0,1.0,-0.304878056049,2.5,-0.365853667259,1.0,0.0,0.0,0.0,1.0,0.0,0.0,0.0,1.0,-0.579396801758,0.0622492431641,10.2423947021,1.0,0.0,0.0,0.0,1.0,0.0,0.0,0.0,1.0
1491899979176123158,536,1491899979173942846,,7.81194400787,-0.976293444633,90.0,0.00102199998219,1.0,0.0,0.0,0.0,1.0,0.0,0.0,0.0,1.0,-0.487804889679,2.19512200356,-0.304878056049,1.0,0.0,0.0,0.0,1.0,0.0,0.0,0.0,1.0,-0.521935925381,-0.0430956298828,10.3621047852,1.0,0.0,0.0,0.0,1.0,0.0,0.0,0.0,1.0
1491899979197454360,537,1491899979195646755,,7.81700181961,-0.97662127018,90.0,0.00107899995055,1.0,0.0,0.0,0.0,1.0,0.0,0.0,0.0,1.0,-0.548780500889,2.5,-0.18292683363,1.0,0.0,0.0,0.0,1.0,0.0,0.0,0.0,1.0,-0.593762048251,0.0957680664062,10.3285859619,1.0,0.0,0.0,0.0,1.0,0.0,0.0,0.0,1.0
1491899979218048790,538,1491899979216245300,,7.81908655167,-0.974970757961,90.0,0.00119199999608,1.0,0.0,0.0,0.0,1.0,0.0,0.0,0.0,1.0,-0.975609779358,2.37804889679,-0.0609756112099,1.0,0.0,0.0,0.0,1.0,0.0,0.0,0.0,1.0,-0.679953271484,0.0478840332031,10.2280294922,1.0,0.0,0.0,0.0,1.0,0.0,0.0,0.0,1.0
1491899979239738689,539,1491899979237742126,,7.81826353073,-0.971853196621,90.0,0.00107200001366,1.0,0.0,0.0,0.0,1.0,0.0,0.0,0.0,1.0,-0.365853667259,2.13414645195,-0.304878056049,1.0,0.0,0.0,0.0,1.0,0.0,0.0,0.0,1.0,-0.703895288086,-0.0814028564453,10.2136642822,1.0,0.0,0.0,0.0,1.0,0.0,0.0,0.0,1.0
1491899979263768015,540,1491899979260771504,,7.81261301041,-0.969222068787,90.0,0.00293199997395,1.0,0.0,0.0,0.0,1.0,0.0,0.0,0.0,1.0,-0.548780500889,2.01219511032,-0.18292683363,1.0,0.0,0.0,0.0,1.0,0.0,0.0,0.0,1.0,-0.45968671875,0.0239420166016,10.2902787354,1.0,0.0,0.0,0.0,1.0,0.0,0.0,0.0,1.0
1491899979287315987,541,1491899979282121455,,7.81270074844,-0.967408180237,90.0,0.00108099996578,1.0,0.0,0.0,0.0,1.0,0.0,0.0,0.0,1.0,-0.304878056049,1.95121955872,-0.243902444839,1.0,0.0,0.0,0.0,1.0,0.0,0.0,0.0,1.0,-0.478840332031,0.105344873047,10.2567599121,1.0,0.0,0.0,0.0,1.0,0.0,0.0,0.0,1.0
1491899979305582344,542,1491899979303315521,,7.81201648712,-0.9674731493,90.0,0.00118899997324,1.0,0.0,0.0,0.0,1.0,0.0,0.0,0.0,1.0,-0.18292683363,2.19512200356,-0.731707334518,1.0,0.0,0.0,0.0,1.0,0.0,0.0,0.0,1.0,-0.478840332031,0.0526724365234,10.2376062988,1.0,0.0,0.0,0.0,1.0,0.0,0.0,0.0,1.0
1491899979326050732,543,1491899979324173336,,7.80666065216,-0.964438378811,90.0,0.00121899996884,1.0,0.0,0.0,0.0,1.0,0.0,0.0,0.0,1.0,-0.487804889679,2.01219511032,-0.731707334518,1.0,0.0,0.0,0.0,1.0,0.0,0.0,0.0,1.0,-0.450109912109,0.0,10.2088758789,1.0,0.0,0.0,0.0,1.0,0.0,0.0,0.0,1.0
1491899979347227663,544,1491899979345460110,,7.80811357498,-0.965188860893,90.0,0.00121100002434,1.0,0.0,0.0,0.0,1.0,0.0,0.0,0.0,1.0,-0.365853667259,2.5,-0.426829278469,1.0,0.0,0.0,0.0,1.0,0.0,0.0,0.0,1.0,-0.574608398438,0.00478840332031,10.2759135254,1.0,0.0,0.0,0.0,1.0,0.0,0.0,0.0,1.0
1491899979367797718,545,1491899979366062665,,7.80669784546,-0.966880738735,90.0,0.00103499996476,1.0,0.0,0.0,0.0,1.0,0.0,0.0,0.0,1.0,-0.426829278469,2.68292689323,-0.426829278469,1.0,0.0,0.0,0.0,1.0,0.0,0.0,0.0,1.0,-0.646434448242,0.0239420166016,10.0029745361,1.0,0.0,0.0,0.0,1.0,0.0,0.0,0.0,1.0
1491899979388381471,546,1491899979386474543,,7.80742502213,-0.964271485806,90.0,0.00116300000809,1.0,0.0,0.0,0.0,1.0,0.0,0.0,0.0,1.0,-0.426829278469,2.56097555161,-0.426829278469,1.0,0.0,0.0,0.0,1.0,0.0,0.0,0.0,1.0,-0.641646044922,0.0335188255255,10.2376062988,1.0,0.0,0.0,0.0,1.0,0.0,0.0,0.0,1.0
1491899979408871838,547,1491899979407133973,,7.80617523193,-0.960013329983,90.0,0.00103899999522,1.0,0.0,0.0,0.0,1.0,0.0,0.0,0.0,1.0,-0.426829278469,2.43902444839,-0.365853667259,1.0,0.0,0.0,0.0,1.0,0.0,0.0,0.0,1.0,-0.651222851562,0.0718260498047,10.3716815918,1.0,0.0,0.0,0.0,1.0,0.0,0.0,0.0,1.0
1491899979429486320,548,1491899979427813039,,7.80340576172,-0.962365746498,90.0,0.0009710000013,1.0,0.0,0.0,0.0,1.0,0.0,0.0,0.0,1.0,-0.243902444839,2.25609779358,-0.365853667259,1.0,0.0,0.0,0.0,1.0,0.0,0.0,0.0,1.0,-0.713472094727,-0.0909796630859,10.2902787354,1.0,0.0,0.0,0.0,1.0,0.0,0.0,0.0,1.0
1491899979450518094,549,1491899979448455125,,7.79630851746,-0.963318586349,90.0,0.00104700005613,1.0,0.0,0.0,0.0,1.0,0.0,0.0,0.0,1.0,-0.365853667259,2.25609779358,-0.548780500889,1.0,0.0,0.0,0.0,1.0,0.0,0.0,0.0,1.0,-0.76135612793,0.00478840332031,10.3573163818,1.0,0.0,0.0,0.0,1.0,0.0,0.0,0.0,1.0
1491899979471202733,550,1491899979469587316,,7.78729104996,-0.959812521935,90.0,0.000967999978457,1.0,0.0,0.0,0.0,1.0,0.0,0.0,0.0,1.0,-0.426829278469,2.07317066193,-0.304878056049,1.0,0.0,0.0,0.0,1.0,0.0,0.0,0.0,1.0,-0.632069238281,-0.0335188255255,10.1322614258,1.0,0.0,0.0,0.0,1.0,0.0,0.0,0.0,1.0
1491899979493316746,551,1491899979490063777,,7.78133249283,-0.958236753941,90.0,0.0010529999854,1.0,0.0,0.0,0.0,1.0,0.0,0.0,0.0,1.0,-0.426829278469,2.19512200356,-0.426829278469,1.0,0.0,0.0,0.0,1.0,0.0,0.0,0.0,1.0,-0.646434448242,0.00957680664062,10.3190091553,1.0,0.0,0.0,0.0,1.0,0.0,0.0,0.0,1.0
1491899979515190968,552,1491899979511086489,,7.77817773819,-0.956012606621,90.0,0.000962999998592,1.0,0.0,0.0,0.0,1.0,0.0,0.0,0.0,1.0,-0.365853667259,2.25609779358,-0.487804889679,1.0,0.0,0.0,0.0,1.0,0.0,0.0,0.0,1.0,-0.517147558594,-0.0287304199219,10.3429511719,1.0,0.0,0.0,0.0,1.0,0.0,0.0,0.0,1.0
1491899979533801179,553,1491899979531859877,,7.77884817123,-0.953778684139,90.0,0.00097499997355,1.0,0.0,0.0,0.0,1.0,0.0,0.0,0.0,1.0,-0.487804889679,2.43902444839,-0.243902444839,1.0,0.0,0.0,0.0,1.0,0.0,0.0,0.0,1.0,-0.588973571866,0.0430956298828,10.3764699951,1.0,0.0,0.0,0.0,1.0,0.0,0.0,0.0,1.0
1491899979554764880,554,1491899979552698526,,7.78220891953,-0.955666303635,90.0,0.000966000021435,1.0,0.0,0.0,0.0,1.0,0.0,0.0,0.0,1.0,-0.487804889679,2.37804889679,-0.304878056049,1.0,0.0,0.0,0.0,1.0,0.0,0.0,0.0,1.0,-0.660799658203,0.114921679688,10.2136642822,1.0,0.0,0.0,0.0,1.0,0.0,0.0,0.0,1.0
1491899979575536862,555,1491899979573746081,,7.78706455231,-0.954726576805,90.0,0.00109000003431,1.0,0.0,0.0,0.0,1.0,0.0,0.0,0.0,1.0,-0.731707334518,2.43902444839,-0.365853667259,1.0,0.0,0.0,0.0,1.0,0.0,0.0,0.0,1.0,-0.550666381836,0.00478840332031,10.2902787354,1.0,0.0,0.0,0.0,1.0,0.0,0.0,0.0,1.0
1491899979596340147,556,1491899979594595303,,7.79000329971,-0.956522941589,90.0,0.00117099995259,1.0,0.0,0.0,0.0,1.0,0.0,0.0,0.0,1.0,-0.548780500889,2.43902444839,-0.365853667259,1.0,0.0,0.0,0.0,1.0,0.0,0.0,0.0,1.0,-0.636857641602,0.067037651051,10.2902787354,1.0,0.0,0.0,0.0,1.0,0.0,0.0,0.0,1.0
1491899979617302129,557,1491899979615527597,,7.79590702057,-0.957416057587,90.0,0.000959000026342,1.0,0.0,0.0,0.0,1.0,0.0,0.0,0.0,1.0,-0.792682945728,2.92682933807,-0.243902444839,1.0,0.0,0.0,0.0,1.0,0.0,0.0,0.0,1.0,-0.641646044922,0.0430956298828,10.2184526855,1.0,0.0,0.0,0.0,1.0,0.0,0.0,0.0,1.0
1491899979638375413,558,1491899979636335621,,7.80192422867,-0.959898352623,90.0,0.00100899999961,1.0,0.0,0.0,0.0,1.0,0.0,0.0,0.0,1.0,-0.487804889679,2.56097555161,-0.243902444839,1.0,0.0,0.0,0.0,1.0,0.0,0.0,0.0,1.0,-0.603338854892,-0.00478840332031,10.1897222656,1.0,0.0,0.0,0.0,1.0,0.0,0.0,0.0,1.0
1491899979658966666,559,1491899979657170937,,7.80491399765,-0.959412693977,90.0,0.00102399999741,1.0,0.0,0.0,0.0,1.0,0.0,0.0,0.0,1.0,-0.487804889679,2.31707310677,-0.365853667259,1.0,0.0,0.0,0.0,1.0,0.0,0.0,0.0,1.0,-0.751779321289,-0.076614453125,10.2567599121,1.0,0.0,0.0,0.0,1.0,0.0,0.0,0.0,1.0
1491899979680245628,560,1491899979677994794,,7.80425691605,-0.959919273853,90.0,0.0011190000223,1.0,0.0,0.0,0.0,1.0,0.0,0.0,0.0,1.0,-0.365853667259,2.19512200356,-0.365853667259,1.0,0.0,0.0,0.0,1.0,0.0,0.0,0.0,1.0,-0.727837304687,0.0143652099609,10.1897222656,1.0,0.0,0.0,0.0,1.0,0.0,0.0,0.0,1.0
1491899979701779173,561,1491899979698889797,,7.80139541626,-0.959890067577,90.0,0.00122400000691,1.0,0.0,0.0,0.0,1.0,0.0,0.0,0.0,1.0,-0.487804889679,2.13414645195,-0.243902444839,1.0,0.0,0.0,0.0,1.0,0.0,0.0,0.0,1.0,-0.588973571866,-0.00478840332031,10.2040874756,1.0,0.0,0.0,0.0,1.0,0.0,0.0,0.0,1.0
1491899979724282822,562,1491899979721005425,,7.79692554474,-0.960967481136,90.0,0.00156500004232,1.0,0.0,0.0,0.0,1.0,0.0,0.0,0.0,1.0,-0.304878056049,2.01219511032,-0.0609756112099,1.0,0.0,0.0,0.0,1.0,0.0,0.0,0.0,1.0,-0.565031591797,-0.0526724365234,10.285490332,1.0,0.0,0.0,0.0,1.0,0.0,0.0,0.0,1.0
1491899979745646783,563,1491899979742242147,,7.79992580414,-0.959415435791,90.0,0.00165999995079,1.0,0.0,0.0,0.0,1.0,0.0,0.0,0.0,1.0,-0.487804889679,2.31707310677,-0.365853667259,1.0,0.0,0.0,0.0,1.0,0.0,0.0,0.0,1.0,-0.512359155273,0.0430956298828,10.3046439453,1.0,0.0,0.0,0.0,1.0,0.0,0.0,0.0,1.0
1491899979766355015,564,1491899979764126942,,7.8039150238,-0.95966976881,90.0,0.00180099997669,1.0,0.0,0.0,0.0,1.0,0.0,0.0,0.0,1.0,-0.853658556938,2.31707310677,-0.304878056049,1.0,0.0,0.0,0.0,1.0,0.0,0.0,0.0,1.0,-0.450109912109,0.0143652099609,10.4482960449,1.0,0.0,0.0,0.0,1.0,0.0,0.0,0.0,1.0
1491899979787840383,565,1491899979785835747,,7.80322980881,-0.959962546825,90.0,0.00139400002081,1.0,0.0,0.0,0.0,1.0,0.0,0.0,0.0,1.0,-0.487804889679,2.5,-0.487804889679,1.0,0.0,0.0,0.0,1.0,0.0,0.0,0.0,1.0,-0.550666381836,-0.0526724365234,10.1609918457,1.0,0.0,0.0,0.0,1.0,0.0,0.0,0.0,1.0
1491899979808085126,566,1491899979806345177,,7.80169582367,-0.965961515903,90.0,0.00106100004632,1.0,0.0,0.0,0.0,1.0,0.0,0.0,0.0,1.0,-0.426829278469,2.80487799644,-0.243902444839,1.0,0.0,0.0,0.0,1.0,0.0,0.0,0.0,1.0,-0.603338854892,0.0526724365234,10.1466266357,1.0,0.0,0.0,0.0,1.0,0.0,0.0,0.0,1.0
1491899979828787472,567,1491899979826975545,,7.79967594147,-0.967512786388,90.0,0.00103599997237,1.0,0.0,0.0,0.0,1.0,0.0,0.0,0.0,1.0,-0.548780500889,2.5,-0.426829278469,1.0,0.0,0.0,0.0,1.0,0.0,0.0,0.0,1.0,-0.694318481445,0.0622492431641,10.1705686523,1.0,0.0,0.0,0.0,1.0,0.0,0.0,0.0,1.0
1491899979851193048,568,1491899979849392736,,7.80442857742,-0.970474600792,90.0,0.00656800018623,1.0,0.0,0.0,0.0,1.0,0.0,0.0,0.0,1.0,-0.548780500889,2.07317066193,-0.12195122242,1.0,0.0,0.0,0.0,1.0,0.0,0.0,0.0,1.0,-0.727837304687,-0.0335188255255,10.2950671387,1.0,0.0,0.0,0.0,1.0,0.0,0.0,0.0,1.0
1491899979871939614,569,1491899979870173207,,7.79826784134,-0.970664262772,90.0,0.00096700002905,1.0,0.0,0.0,0.0,1.0,0.0,0.0,0.0,1.0,-0.548780500889,2.07317066193,-0.304878056049,1.0,0.0,0.0,0.0,1.0,0.0,0.0,0.0,1.0,-0.60812722168,0.0526724365234,10.2136642822,1.0,0.0,0.0,0.0,1.0,0.0,0.0,0.0,1.0
1491899979893588732,570,1491899979891628836,,7.79883003235,-0.97075176239,90.0,0.00102600001264,1.0,0.0,0.0,0.0,1.0,0.0,0.0,0.0,1.0,-0.548780500889,1.95121955872,-0.426829278469,1.0,0.0,0.0,0.0,1.0,0.0,0.0,0.0,1.0,-0.636857641602,-0.0239420166016,10.3477395752,1.0,0.0,0.0,0.0,1.0,0.0,0.0,0.0,1.0
1491899979913676495,571,1491899979912390297,,7.80093431473,-0.973609805107,90.0,0.000964000006206,1.0,0.0,0.0,0.0,1.0,0.0,0.0,0.0,1.0,-0.487804889679,2.19512200356,-0.365853667259,1.0,0.0,0.0,0.0,1.0,0.0,0.0,0.0,1.0,-0.526724328702,0.0909796630859,10.1897222656,1.0,0.0,0.0,0.0,1.0,0.0,0.0,0.0,1.0
1491899979936335873,572,1491899979933916342,,7.79971075058,-0.971570253372,90.0,0.0013190000318,1.0,0.0,0.0,0.0,1.0,0.0,0.0,0.0,1.0,-0.548780500889,2.43902444839,-0.18292683363,1.0,0.0,0.0,0.0,1.0,0.0,0.0,0.0,1.0,-0.598550451572,0.00478840332031,10.3860468018,1.0,0.0,0.0,0.0,1.0,0.0,0.0,0.0,1.0
1491899979956205095,573,1491899979954810772,,7.79629993439,-0.968899488449,90.0,0.000975999981165,1.0,0.0,0.0,0.0,1.0,0.0,0.0,0.0,1.0,-0.304878056049,2.43902444839,-0.12195122242,1.0,0.0,0.0,0.0,1.0,0.0,0.0,0.0,1.0,-0.622492431641,0.114921679688,10.1514150391,1.0,0.0,0.0,0.0,1.0,0.0,0.0,0.0,1.0
1491899979976563588,574,1491899979975291400,,7.79669952393,-0.97104716301,90.0,0.000975999981165,1.0,0.0,0.0,0.0,1.0,0.0,0.0,0.0,1.0,-0.426829278469,2.5,-0.304878056049,1.0,0.0,0.0,0.0,1.0,0.0,0.0,0.0,1.0,-0.579396801758,0.0143652099609,10.2423947021,1.0,0.0,0.0,0.0,1.0,0.0,0.0,0.0,1.0
1491899979998241247,575,1491899979996844997,,7.79579401016,-0.972132146358,90.0,0.00112499995157,1.0,0.0,0.0,0.0,1.0,0.0,0.0,0.0,1.0,-0.609756112099,2.56097555161,-0.12195122242,1.0,0.0,0.0,0.0,1.0,0.0,0.0,0.0,1.0,-0.612915625,-0.0191536132812,10.2088758789,1.0,0.0,0.0,0.0,1.0,0.0,0.0,0.0,1.0
1491899980020038594,576,1491899980018493594,,7.79784822464,-0.975222945213,90.0,0.00109499995597,1.0,0.0,0.0,0.0,1.0,0.0,0.0,0.0,1.0,-0.365853667259,2.43902444839,-0.426829278469,1.0,0.0,0.0,0.0,1.0,0.0,0.0,0.0,1.0,-0.703895288086,-0.0909796630859,10.2328178955,1.0,0.0,0.0,0.0,1.0,0.0,0.0,0.0,1.0
1491899980041880941,577,1491899980040370993,,7.79805612564,-0.97663629055,90.0,0.00151500001084,1.0,0.0,0.0,0.0,1.0,0.0,0.0,0.0,1.0,-0.609756112099,2.19512200356,-0.304878056049,1.0,0.0,0.0,0.0,1.0,0.0,0.0,0.0,1.0,-0.493205541992,-0.110133276367,10.3956236084,1.0,0.0,0.0,0.0,1.0,0.0,0.0,0.0,1.0
1491899980062767715,578,1491899980061354694,,7.79951047897,-0.978506982327,90.0,0.0017049999442,1.0,0.0,0.0,0.0,1.0,0.0,0.0,0.0,1.0,-0.12195122242,2.25609779358,-0.12195122242,1.0,0.0,0.0,0.0,1.0,0.0,0.0,0.0,1.0,-0.478840332031,-0.138863696289,10.2328178955,1.0,0.0,0.0,0.0,1.0,0.0,0.0,0.0,1.0
1491899980083819801,579,1491899980082607874,,7.80337619781,-0.977692484856,90.0,0.00107700005174,1.0,0.0,0.0,0.0,1.0,0.0,0.0,0.0,1.0,-0.365853667259,2.13414645195,-0.243902444839,1.0,0.0,0.0,0.0,1.0,0.0,0.0,0.0,1.0,-0.493205541992,0.119710083008,10.3333743652,1.0,0.0,0.0,0.0,1.0,0.0,0.0,0.0,1.0
1491899980105786263,580,1491899980104141367,,7.80298185349,-0.973826408386,90.0,0.00140199996531,1.0,0.0,0.0,0.0,1.0,0.0,0.0,0.0,1.0,-0.243902444839,2.01219511032,-0.426829278469,1.0,0.0,0.0,0.0,1.0,0.0,0.0,0.0,1.0,-0.493205541992,0.0287304199219,10.3860468018,1.0,0.0,0.0,0.0,1.0,0.0,0.0,0.0,1.0
1491899980126499599,581,1491899980124951109,,7.80455684662,-0.974742412567,90.0,0.00269800005481,1.0,0.0,0.0,0.0,1.0,0.0,0.0,0.0,1.0,-0.365853667259,2.43902444839,-0.426829278469,1.0,0.0,0.0,0.0,1.0,0.0,0.0,0.0,1.0,-0.550666381836,-0.0909796630859,10.4578728516,1.0,0.0,0.0,0.0,1.0,0.0,0.0,0.0,1.0
1491899980148013300,582,1491899980145896216,,7.80170631409,-0.972272396088,90.0,0.00101000000723,1.0,0.0,0.0,0.0,1.0,0.0,0.0,0.0,1.0,-0.426829278469,2.37804889679,-0.365853667259,1.0,0.0,0.0,0.0,1.0,0.0,0.0,0.0,1.0,-0.588973571866,0.0383072265625,10.3285859619,1.0,0.0,0.0,0.0,1.0,0.0,0.0,0.0,1.0
1491899980169177678,583,1491899980166538407,,7.79905653,-0.972379148006,90.0,0.00100599997677,1.0,0.0,0.0,0.0,1.0,0.0,0.0,0.0,1.0,-0.792682945728,2.68292689323,-0.243902444839,1.0,0.0,0.0,0.0,1.0,0.0,0.0,0.0,1.0,-0.598550451572,0.0861912597656,10.1514150391,1.0,0.0,0.0,0.0,1.0,0.0,0.0,0.0,1.0
1491899980189522369,584,1491899980187599400,,7.79678487778,-0.968475699425,90.0,0.00104899995495,1.0,0.0,0.0,0.0,1.0,0.0,0.0,0.0,1.0,-0.487804889679,2.5,-0.0609756112099,1.0,0.0,0.0,0.0,1.0,0.0,0.0,0.0,1.0,-0.622492431641,-0.0574608398438,10.285490332,1.0,0.0,0.0,0.0,1.0,0.0,0.0,0.0,1.0
1491899980211230445,585,1491899980208791538,,7.79574489594,-0.965282797813,90.0,0.00103299994953,1.0,0.0,0.0,0.0,1.0,0.0,0.0,0.0,1.0,-0.304878056049,2.43902444839,-0.304878056049,1.0,0.0,0.0,0.0,1.0,0.0,0.0,0.0,1.0,-0.679953271484,0.0957680664062,10.2950671387,1.0,0.0,0.0,0.0,1.0,0.0,0.0,0.0,1.0
1491899980234235708,586,1491899980229489145,,7.79956817627,-0.963941693306,90.0,0.00102500000503,1.0,0.0,0.0,0.0,1.0,0.0,0.0,0.0,1.0,-0.548780500889,2.31707310677,-0.426829278469,1.0,0.0,0.0,0.0,1.0,0.0,0.0,0.0,1.0,-0.713472094727,0.0287304199219,10.0795889893,1.0,0.0,0.0,0.0,1.0,0.0,0.0,0.0,1.0
1491899980251992638,587,1491899980250369044,,7.80177688599,-0.964006721973,90.0,0.00106399995275,1.0,0.0,0.0,0.0,1.0,0.0,0.0,0.0,1.0,-0.670731723309,2.01219511032,-0.365853667259,1.0,0.0,0.0,0.0,1.0,0.0,0.0,0.0,1.0,-0.670376464844,0.0335188255255,10.3046439453,1.0,0.0,0.0,0.0,1.0,0.0,0.0,0.0,1.0
1491899980273235193,588,1491899980271242433,,7.80255508423,-0.966230928898,90.0,0.0010300000431,1.0,0.0,0.0,0.0,1.0,0.0,0.0,0.0,1.0,-0.487804889679,1.95121955872,-0.304878056049,1.0,0.0,0.0,0.0,1.0,0.0,0.0,0.0,1.0,-0.675164868164,0.0143652099609,10.3237975586,1.0,0.0,0.0,0.0,1.0,0.0,0.0,0.0,1.0
1491899980293636707,589,1491899980291834571,,7.79991579056,-0.965026140213,90.0,0.00102199998219,1.0,0.0,0.0,0.0,1.0,0.0,0.0,0.0,1.0,-0.426829278469,2.01219511032,-0.243902444839,1.0,0.0,0.0,0.0,1.0,0.0,0.0,0.0,1.0,-0.699106884766,0.0574608398438,10.2567599121,1.0,0.0,0.0,0.0,1.0,0.0,0.0,0.0,1.0
1491899980315277283,590,1491899980312950772,,7.79775190353,-0.962896108627,90.0,0.00101999996696,1.0,0.0,0.0,0.0,1.0,0.0,0.0,0.0,1.0,-0.18292683363,1.95121955872,-0.12195122242,1.0,0.0,0.0,0.0,1.0,0.0,0.0,0.0,1.0,-0.555454785156,0.00957680664062,10.2280294922,1.0,0.0,0.0,0.0,1.0,0.0,0.0,0.0,1.0
1491899980335163119,591,1491899980333410619,,7.79622554779,-0.963397443295,90.0,0.000962999998592,1.0,0.0,0.0,0.0,1.0,0.0,0.0,0.0,1.0,-0.609756112099,2.01219511032,-0.243902444839,1.0,0.0,0.0,0.0,1.0,0.0,0.0,0.0,1.0,-0.512359155273,-0.0191536132812,10.1226846191,1.0,0.0,0.0,0.0,1.0,0.0,0.0,0.0,1.0
1491899980359430570,592,1491899980354243695,,7.79312705994,-0.961095929146,90.0,0.00104799994733,1.0,0.0,0.0,0.0,1.0,0.0,0.0,0.0,1.0,-0.548780500889,2.13414645195,-0.12195122242,1.0,0.0,0.0,0.0,1.0,0.0,0.0,0.0,1.0,-0.526724328702,-0.00478840332031,10.4722380615,1.0,0.0,0.0,0.0,1.0,0.0,0.0,0.0,1.0
1491899980379146407,593,1491899980376976302,,7.79268407822,-0.959532976151,90.0,0.000967999978457,1.0,0.0,0.0,0.0,1.0,0.0,0.0,0.0,1.0,-1.03658533096,2.5,-0.243902444839,1.0,0.0,0.0,0.0,1.0,0.0,0.0,0.0,1.0,-0.612915625,0.00478840332031,10.3237975586,1.0,0.0,0.0,0.0,1.0,0.0,0.0,0.0,1.0
1491899980399669378,594,1491899980398056774,,7.79827165604,-0.961559832096,90.0,0.00253699999303,1.0,0.0,0.0,0.0,1.0,0.0,0.0,0.0,1.0,-0.487804889679,2.86585378647,-0.18292683363,1.0,0.0,0.0,0.0,1.0,0.0,0.0,0.0,1.0,-0.651222851562,-0.0287304199219,10.2232410889,1.0,0.0,0.0,0.0,1.0,0.0,0.0,0.0,1.0
1491899980420284590,595,1491899980418843287,,7.801445961,-0.958643853664,90.0,0.00128600001335,1.0,0.0,0.0,0.0,1.0,0.0,0.0,0.0,1.0,-0.243902444839,2.19512200356,-0.18292683363,1.0,0.0,0.0,0.0,1.0,0.0,0.0,0.0,1.0,-0.632069238281,0.0335188255255,10.2567599121,1.0,0.0,0.0,0.0,1.0,0.0,0.0,0.0,1.0
1491899980441363655,596,1491899980439784592,,7.80523967743,-0.960987687111,90.0,0.00120499997865,1.0,0.0,0.0,0.0,1.0,0.0,0.0,0.0,1.0,-0.18292683363,2.37804889679,-0.18292683363,1.0,0.0,0.0,0.0,1.0,0.0,0.0,0.0,1.0,-0.636857641602,-0.0526724365234,10.1753570557,1.0,0.0,0.0,0.0,1.0,0.0,0.0,0.0,1.0
1491899980461942408,597,1491899980460211002,,7.80682706833,-0.95871680975,90.0,0.00123699998949,1.0,0.0,0.0,0.0,1.0,0.0,0.0,0.0,1.0,-0.365853667259,2.13414645195,-0.243902444839,1.0,0.0,0.0,0.0,1.0,0.0,0.0,0.0,1.0,-0.507570751953,-0.124498486328,10.3190091553,1.0,0.0,0.0,0.0,1.0,0.0,0.0,0.0,1.0
1491899980482415224,598,1491899980480681890,,7.80580806732,-0.958560585976,90.0,0.00108499999624,1.0,0.0,0.0,0.0,1.0,0.0,0.0,0.0,1.0,-0.365853667259,2.25609779358,-0.243902444839,1.0,0.0,0.0,0.0,1.0,0.0,0.0,0.0,1.0,-0.536301208408,0.0143652099609,10.3046439453,1.0,0.0,0.0,0.0,1.0,0.0,0.0,0.0,1.0
1491899980502823664,599,1491899980501301685,,7.80430173874,-0.958373963833,90.0,0.00115300004836,1.0,0.0,0.0,0.0,1.0,0.0,0.0,0.0,1.0,-0.609756112099,2.07317066193,-0.18292683363,1.0,0.0,0.0,0.0,1.0,0.0,0.0,0.0,1.0,-0.574608398438,0.00957680664062,10.2711251221,1.0,0.0,0.0,0.0,1.0,0.0,0.0,0.0,1.0
1491899980524827678,600,1491899980523027157,,7.80379009247,-0.96043920517,90.0,0.0012080000015,1.0,0.0,0.0,0.0,1.0,0.0,0.0,0.0,1.0,-0.18292683363,2.31707310677,-0.548780500889,1.0,0.0,0.0,0.0,1.0,0.0,0.0,0.0,1.0,-0.497993945312,0.0526724365234,10.2807019287,1.0,0.0,0.0,0.0,1.0,0.0,0.0,0.0,1.0
1491899980545990181,601,1491899980544411535,,7.80353164673,-0.961045205593,90.0,0.00144899997395,1.0,0.0,0.0,0.0,1.0,0.0,0.0,0.0,1.0,-0.548780500889,2.13414645195,-0.426829278469,1.0,0.0,0.0,0.0,1.0,0.0,0.0,0.0,1.0,-0.493205541992,-0.0574608398438,10.3333743652,1.0,0.0,0.0,0.0,1.0,0.0,0.0,0.0,1.0
1491899980567209507,602,1491899980565607059,,7.80407428741,-0.962939202785,90.0,0.00137099996209,1.0,0.0,0.0,0.0,1.0,0.0,0.0,0.0,1.0,-0.548780500889,2.43902444839,-0.426829278469,1.0,0.0,0.0,0.0,1.0,0.0,0.0,0.0,1.0,-0.569819995117,0.0143652099609,10.046070166,1.0,0.0,0.0,0.0,1.0,0.0,0.0,0.0,1.0
1491899980588023937,603,1491899980586806749,,7.8083486557,-0.961672544479,90.0,0.00105900003109,1.0,0.0,0.0,0.0,1.0,0.0,0.0,0.0,1.0,-0.609756112099,2.37804889679,-0.426829278469,1.0,0.0,0.0,0.0,1.0,0.0,0.0,0.0,1.0,-0.670376464844,0.0287304199219,10.1897222656,1.0,0.0,0.0,0.0,1.0,0.0,0.0,0.0,1.0
1491899980608417117,604,1491899980607206804,,7.80836009979,-0.960327982903,90.0,0.00114499998745,1.0,0.0,0.0,0.0,1.0,0.0,0.0,0.0,1.0,-0.548780500889,2.5,-0.426829278469,1.0,0.0,0.0,0.0,1.0,0.0,0.0,0.0,1.0,-0.708683691406,0.0526724365234,10.2567599121,1.0,0.0,0.0,0.0,1.0,0.0,0.0,0.0,1.0
1491899980630053318,605,1491899980628321860,,7.80626869202,-0.959215819836,90.0,0.00155899999663,1.0,0.0,0.0,0.0,1.0,0.0,0.0,0.0,1.0,-0.304878056049,2.43902444839,-0.365853667259,1.0,0.0,0.0,0.0,1.0,0.0,0.0,0.0,1.0,-0.718260498047,-0.0143652099609,10.3573163818,1.0,0.0,0.0,0.0,1.0,0.0,0.0,0.0,1.0
1491899980651401030,606,1491899980649746967,,7.80873918533,-0.957027971745,90.0,0.00105199997779,1.0,0.0,0.0,0.0,1.0,0.0,0.0,0.0,1.0,-0.426829278469,2.25609779358,-0.426829278469,1.0,0.0,0.0,0.0,1.0,0.0,0.0,0.0,1.0,-0.603338854892,0.0861912597656,10.1992990723,1.0,0.0,0.0,0.0,1.0,0.0,0.0,0.0,1.0
1491899980671837855,607,1491899980670199886,,7.810069561,-0.958297789097,90.0,0.00101300003007,1.0,0.0,0.0,0.0,1.0,0.0,0.0,0.0,1.0,-0.731707334518,2.19512200356,-0.304878056049,1.0,0.0,0.0,0.0,1.0,0.0,0.0,0.0,1.0,-0.632069238281,0.0335188255255,10.3668931885,1.0,0.0,0.0,0.0,1.0,0.0,0.0,0.0,1.0
1491899980693378900,608,1491899980691494994,,7.80940103531,-0.957774162292,90.0,0.000997000024654,1.0,0.0,0.0,0.0,1.0,0.0,0.0,0.0,1.0,-0.487804889679,1.95121955872,-0.243902444839,1.0,0.0,0.0,0.0,1.0,0.0,0.0,0.0,1.0,-0.656011254883,0.0143652099609,10.1897222656,1.0,0.0,0.0,0.0,1.0,0.0,0.0,0.0,1.0
1491899980717539789,609,1491899980713039372,,7.80435037613,-0.956999778748,90.0,0.0012009999482,1.0,0.0,0.0,0.0,1.0,0.0,0.0,0.0,1.0,-0.670731723309,2.01219511032,-0.243902444839,1.0,0.0,0.0,0.0,1.0,0.0,0.0,0.0,1.0,-0.488417138672,0.0239420166016,10.3381627686,1.0,0.0,0.0,0.0,1.0,0.0,0.0,0.0,1.0
1491899980736985157,610,1491899980733887864,,7.80432415009,-0.959099531174,90.0,0.00107200001366,1.0,0.0,0.0,0.0,1.0,0.0,0.0,0.0,1.0,-0.426829278469,2.13414645195,-0.304878056049,1.0,0.0,0.0,0.0,1.0,0.0,0.0,0.0,1.0,-0.526724328702,-0.119710083008,10.3860468018,1.0,0.0,0.0,0.0,1.0,0.0,0.0,0.0,1.0
1491899980757059847,611,1491899980754923076,,7.80227327347,-0.958372294903,90.0,0.0010969999712,1.0,0.0,0.0,0.0,1.0,0.0,0.0,0.0,1.0,-0.426829278469,2.68292689323,-0.304878056049,1.0,0.0,0.0,0.0,1.0,0.0,0.0,0.0,1.0,-0.598550451572,0.0335188255255,10.3285859619,1.0,0.0,0.0,0.0,1.0,0.0,0.0,0.0,1.0
1491899980777898183,612,1491899980775464693,,7.80319452286,-0.956444621086,90.0,0.00131500000134,1.0,0.0,0.0,0.0,1.0,0.0,0.0,0.0,1.0,-0.426829278469,2.56097555161,-0.365853667259,1.0,0.0,0.0,0.0,1.0,0.0,0.0,0.0,1.0,-0.622492431641,-0.0335188255255,10.2088758789,1.0,0.0,0.0,0.0,1.0,0.0,0.0,0.0,1.0
1491899980798853030,613,1491899980797637770,,7.80273103714,-0.958224236965,90.0,0.00110899994615,1.0,0.0,0.0,0.0,1.0,0.0,0.0,0.0,1.0,-0.18292683363,2.56097555161,-0.304878056049,1.0,0.0,0.0,0.0,1.0,0.0,0.0,0.0,1.0,-0.679953271484,-0.0287304199219,10.2184526855,1.0,0.0,0.0,0.0,1.0,0.0,0.0,0.0,1.0
1491899980818816939,614,1491899980817797668,,7.80686473846,-0.959938824177,90.0,0.00108399998862,1.0,0.0,0.0,0.0,1.0,0.0,0.0,0.0,1.0,-0.304878056049,2.37804889679,-0.18292683363,1.0,0.0,0.0,0.0,1.0,0.0,0.0,0.0,1.0,-0.636857641602,0.0574608398438,10.0939541992,1.0,0.0,0.0,0.0,1.0,0.0,0.0,0.0,1.0
1491899980846294912,615,1491899980839175640,,7.80915021896,-0.960711419582,90.0,0.00126599997748,1.0,0.0,0.0,0.0,1.0,0.0,0.0,0.0,1.0,-0.304878056049,2.31707310677,-0.304878056049,1.0,0.0,0.0,0.0,1.0,0.0,0.0,0.0,1.0,-0.603338854892,-0.00478840332031,10.2280294922,1.0,0.0,0.0,0.0,1.0,0.0,0.0,0.0,1.0
1491899980863183040,616,1491899980861235331,,7.80982398987,-0.961515426636,90.0,0.00119700003415,1.0,0.0,0.0,0.0,1.0,0.0,0.0,0.0,1.0,-0.548780500889,2.25609779358,0.0,1.0,0.0,0.0,0.0,1.0,0.0,0.0,0.0,1.0,-0.560243188477,0.0239420166016,10.180145459,1.0,0.0,0.0,0.0,1.0,0.0,0.0,0.0,1.0
1491899980886842262,617,1491899980883374865,,7.80999994278,-0.959533214569,90.0,0.00222199992277,1.0,0.0,0.0,0.0,1.0,0.0,0.0,0.0,1.0,-0.609756112099,2.19512200356,-0.18292683363,1.0,0.0,0.0,0.0,1.0,0.0,0.0,0.0,1.0,-0.541089611728,0.0957680664062,10.2902787354,1.0,0.0,0.0,0.0,1.0,0.0,0.0,0.0,1.0
1491899980907705234,618,1491899980904167629,,7.80646324158,-0.958676099777,90.0,0.00133300002199,1.0,0.0,0.0,0.0,1.0,0.0,0.0,0.0,1.0,-0.548780500889,2.25609779358,-0.304878056049,1.0,0.0,0.0,0.0,1.0,0.0,0.0,0.0,1.0,-0.46447512207,-0.0574608398438,10.2567599121,1.0,0.0,0.0,0.0,1.0,0.0,0.0,0.0,1.0
1491899980928215497,619,1491899980925167163,,7.80605983734,-0.957554399967,90.0,0.00136700004805,1.0,0.0,0.0,0.0,1.0,0.0,0.0,0.0,1.0,-0.670731723309,2.43902444839,-0.670731723309,1.0,0.0,0.0,0.0,1.0,0.0,0.0,0.0,1.0,-0.622492431641,-0.0957680664062,10.299855542,1.0,0.0,0.0,0.0,1.0,0.0,0.0,0.0,1.0
1491899980948785917,620,1491899980945904354,,7.8039484024,-0.958029270172,90.0,0.0010000000475,1.0,0.0,0.0,0.0,1.0,0.0,0.0,0.0,1.0,-0.365853667259,2.19512200356,-0.365853667259,1.0,0.0,0.0,0.0,1.0,0.0,0.0,0.0,1.0,-0.574608398438,0.0957680664062,10.1226846191,1.0,0.0,0.0,0.0,1.0,0.0,0.0,0.0,1.0
1491899980969650295,621,1491899980966886128,,7.79702186584,-0.956697225571,90.0,0.000988999963738,1.0,0.0,0.0,0.0,1.0,0.0,0.0,0.0,1.0,-0.548780500889,2.37804889679,-0.365853667259,1.0,0.0,0.0,0.0,1.0,0.0,0.0,0.0,1.0,-0.61770402832,0.138863696289,10.0221281494,1.0,0.0,0.0,0.0,1.0,0.0,0.0,0.0,1.0
1491899980990153318,622,1491899980987332381,,7.79814195633,-0.957874119282,90.0,0.00157299998682,1.0,0.0,0.0,0.0,1.0,0.0,0.0,0.0,1.0,-0.426829278469,2.31707310677,-0.365853667259,1.0,0.0,0.0,0.0,1.0,0.0,0.0,0.0,1.0,-0.679953271484,-0.0957680664062,10.3812583984,1.0,0.0,0.0,0.0,1.0,0.0,0.0,0.0,1.0
1491899981010547280,623,1491899981007833113,,7.79509687424,-0.957353651524,90.0,0.00101899995934,1.0,0.0,0.0,0.0,1.0,0.0,0.0,0.0,1.0,-0.487804889679,2.37804889679,-0.243902444839,1.0,0.0,0.0,0.0,1.0,0.0,0.0,0.0,1.0,-0.646434448242,-0.0383072265625,10.3668931885,1.0,0.0,0.0,0.0,1.0,0.0,0.0,0.0,1.0
1491899981030771449,624,1491899981028241709,,7.79511928558,-0.959074497223,90.0,0.00127799995244,1.0,0.0,0.0,0.0,1.0,0.0,0.0,0.0,1.0,-0.487804889679,2.5,-0.609756112099,1.0,0.0,0.0,0.0,1.0,0.0,0.0,0.0,1.0,-0.627280834961,-0.0861912597656,10.3237975586,1.0,0.0,0.0,0.0,1.0,0.0,0.0,0.0,1.0
1491899981051455932,625,1491899981049690358,,7.80062580109,-0.959950745106,90.0,0.000959000026342,1.0,0.0,0.0,0.0,1.0,0.0,0.0,0.0,1.0,-0.609756112099,2.31707310677,-0.426829278469,1.0,0.0,0.0,0.0,1.0,0.0,0.0,0.0,1.0,-0.694318481445,0.143652099609,10.0652237793,1.0,0.0,0.0,0.0,1.0,0.0,0.0,0.0,1.0
1491899981073740101,626,1491899981070722341,,7.80729579926,-0.962042689323,90.0,0.000965000013821,1.0,0.0,0.0,0.0,1.0,0.0,0.0,0.0,1.0,-0.365853667259,2.56097555161,-0.18292683363,1.0,0.0,0.0,0.0,1.0,0.0,0.0,0.0,1.0,-0.670376464844,-0.0622492431641,10.2807019287,1.0,0.0,0.0,0.0,1.0,0.0,0.0,0.0,1.0
1491899981095331459,627,1491899981092024531,,7.81113243103,-0.962067484856,90.0,0.000974000024144,1.0,0.0,0.0,0.0,1.0,0.0,0.0,0.0,1.0,-0.487804889679,2.13414645195,-0.12195122242,1.0,0.0,0.0,0.0,1.0,0.0,0.0,0.0,1.0,-0.627280834961,0.0478840332031,10.2567599121,1.0,0.0,0.0,0.0,1.0,0.0,0.0,0.0,1.0
1491899981118021566,628,1491899981112890524,,7.81447696686,-0.958948791027,90.0,0.00118799996562,1.0,0.0,0.0,0.0,1.0,0.0,0.0,0.0,1.0,-0.426829278469,2.13414645195,-0.426829278469,1.0,0.0,0.0,0.0,1.0,0.0,0.0,0.0,1.0,-0.584185168546,0.100556469727,10.0891657959,1.0,0.0,0.0,0.0,1.0,0.0,0.0,0.0,1.0
1491899981139318705,629,1491899981134117454,,7.81365537643,-0.960486292839,90.0,0.00103100005072,1.0,0.0,0.0,0.0,1.0,0.0,0.0,0.0,1.0,-0.548780500889,1.95121955872,-0.18292683363,1.0,0.0,0.0,0.0,1.0,0.0,0.0,0.0,1.0,-0.536301208408,-0.0478840332031,10.3860468018,1.0,0.0,0.0,0.0,1.0,0.0,0.0,0.0,1.0
1491899981159679333,630,1491899981155525322,,7.81097793579,-0.959653973579,90.0,0.000957000011113,1.0,0.0,0.0,0.0,1.0,0.0,0.0,0.0,1.0,-0.670731723309,2.19512200356,-0.18292683363,1.0,0.0,0.0,0.0,1.0,0.0,0.0,0.0,1.0,-0.588973571866,-0.0143652099609,10.2950671387,1.0,0.0,0.0,0.0,1.0,0.0,0.0,0.0,1.0
1491899981179613398,631,1491899981176371731,,7.80726480484,-0.96182346344,90.0,0.00118699995801,1.0,0.0,0.0,0.0,1.0,0.0,0.0,0.0,1.0,-0.487804889679,2.31707310677,-0.12195122242,1.0,0.0,0.0,0.0,1.0,0.0,0.0,0.0,1.0,-0.574608398438,-0.0430956298828,10.1753570557,1.0,0.0,0.0,0.0,1.0,0.0,0.0,0.0,1.0
1491899981201917568,632,1491899981199020380,,7.80145835876,-0.961600184441,90.0,0.00228499993682,1.0,0.0,0.0,0.0,1.0,0.0,0.0,0.0,1.0,-0.792682945728,2.07317066193,-0.243902444839,1.0,0.0,0.0,0.0,1.0,0.0,0.0,0.0,1.0,-0.574608398438,0.076614453125,10.2328178955,1.0,0.0,0.0,0.0,1.0,0.0,0.0,0.0,1.0
1491899981222719186,633,1491899981220336373,,7.79686355591,-0.961078703403,90.0,0.001111999969,1.0,0.0,0.0,0.0,1.0,0.0,0.0,0.0,1.0,-0.487804889679,2.07317066193,-0.0609756112099,1.0,0.0,0.0,0.0,1.0,0.0,0.0,0.0,1.0,-0.526724328702,0.100556469727,10.2232410889,1.0,0.0,0.0,0.0,1.0,0.0,0.0,0.0,1.0
1491899981244023460,634,1491899981241229188,,7.79792690277,-0.960155308247,90.0,0.00114599999506,1.0,0.0,0.0,0.0,1.0,0.0,0.0,0.0,1.0,-0.365853667259,2.31707310677,-0.304878056049,1.0,0.0,0.0,0.0,1.0,0.0,0.0,0.0,1.0,-0.632069238281,0.0526724365234,10.285490332,1.0,0.0,0.0,0.0,1.0,0.0,0.0,0.0,1.0
1491899981263978827,635,1491899981261951223,,7.80159950256,-0.959491431713,90.0,0.00100399996154,1.0,0.0,0.0,0.0,1.0,0.0,0.0,0.0,1.0,-0.18292683363,2.56097555161,-0.304878056049,1.0,0.0,0.0,0.0,1.0,0.0,0.0,0.0,1.0,-0.383072265625,0.0,10.3381627686,1.0,0.0,0.0,0.0,1.0,0.0,0.0,0.0,1.0
1491899981285889768,636,1491899981283134663,,7.80476903915,-0.959323346615,90.0,0.00100100005511,1.0,0.0,0.0,0.0,1.0,0.0,0.0,0.0,1.0,-0.487804889679,2.37804889679,-0.609756112099,1.0,0.0,0.0,0.0,1.0,0.0,0.0,0.0,1.0,-0.488417138672,0.167594116211,10.2328178955,1.0,0.0,0.0,0.0,1.0,0.0,0.0,0.0,1.0
1491899981307258260,637,1491899981304556906,,7.80854940414,-0.959598839283,90.0,0.00150000001304,1.0,0.0,0.0,0.0,1.0,0.0,0.0,0.0,1.0,-0.548780500889,2.56097555161,-0.609756112099,1.0,0.0,0.0,0.0,1.0,0.0,0.0,0.0,1.0,-0.541089611728,-0.0861912597656,10.3333743652,1.0,0.0,0.0,0.0,1.0,0.0,0.0,0.0,1.0
1491899981328249097,638,1491899981325469669,,7.81286001205,-0.957557797432,90.0,0.00100699998438,1.0,0.0,0.0,0.0,1.0,0.0,0.0,0.0,1.0,-0.365853667259,2.43902444839,-0.243902444839,1.0,0.0,0.0,0.0,1.0,0.0,0.0,0.0,1.0,-0.636857641602,0.0287304199219,10.1897222656,1.0,0.0,0.0,0.0,1.0,0.0,0.0,0.0,1.0
1491899981349161964,639,1491899981346271964,,7.8131980896,-0.956994473934,90.0,0.00100499996915,1.0,0.0,0.0,0.0,1.0,0.0,0.0,0.0,1.0,-0.365853667259,2.43902444839,-0.18292683363,1.0,0.0,0.0,0.0,1.0,0.0,0.0,0.0,1.0,-0.651222851562,0.0478840332031,10.1131078125,1.0,0.0,0.0,0.0,1.0,0.0,0.0,0.0,1.0
1491899981370074051,640,1491899981367313061,,7.8110461235,-0.952888548374,90.0,0.000961999990977,1.0,0.0,0.0,0.0,1.0,0.0,0.0,0.0,1.0,-0.243902444839,2.37804889679,-0.12195122242,1.0,0.0,0.0,0.0,1.0,0.0,0.0,0.0,1.0,-0.61770402832,-0.0478840332031,10.2519715088,1.0,0.0,0.0,0.0,1.0,0.0,0.0,0.0,1.0
1491899981390326970,641,1491899981387895251,,7.80667543411,-0.950982272625,90.0,0.000957000011113,1.0,0.0,0.0,0.0,1.0,0.0,0.0,0.0,1.0,-0.426829278469,2.13414645195,-0.304878056049,1.0,0.0,0.0,0.0,1.0,0.0,0.0,0.0,1.0,-0.603338854892,0.0143652099609,10.2807019287,1.0,0.0,0.0,0.0,1.0,0.0,0.0,0.0,1.0
1491899981410947442,642,1491899981408832859,,7.80317306519,-0.947999238968,90.0,0.000959000026342,1.0,0.0,0.0,0.0,1.0,0.0,0.0,0.0,1.0,-0.548780500889,2.01219511032,-0.12195122242,1.0,0.0,0.0,0.0,1.0,0.0,0.0,0.0,1.0,-0.651222851562,0.110133276367,10.165780249,1.0,0.0,0.0,0.0,1.0,0.0,0.0,0.0,1.0
1491899981431456299,643,1491899981429480987,,7.80328702927,-0.947981417179,90.0,0.00096700002905,1.0,0.0,0.0,0.0,1.0,0.0,0.0,0.0,1.0,-0.548780500889,2.07317066193,-0.426829278469,1.0,0.0,0.0,0.0,1.0,0.0,0.0,0.0,1.0,-0.708683691406,0.0909796630859,9.99339772949,1.0,0.0,0.0,0.0,1.0,0.0,0.0,0.0,1.0
1491899981453155053,644,1491899981450866042,,7.8008928299,-0.947780311108,90.0,0.00102199998219,1.0,0.0,0.0,0.0,1.0,0.0,0.0,0.0,1.0,-0.304878056049,2.31707310677,-0.243902444839,1.0,0.0,0.0,0.0,1.0,0.0,0.0,0.0,1.0,-0.502782348633,0.00957680664062,10.2615483154,1.0,0.0,0.0,0.0,1.0,0.0,0.0,0.0,1.0
1491899981473772451,645,1491899981471551045,,7.80377626419,-0.949052333832,90.0,0.000953999988269,1.0,0.0,0.0,0.0,1.0,0.0,0.0,0.0,1.0,-0.548780500889,2.25609779358,-0.487804889679,1.0,0.0,0.0,0.0,1.0,0.0,0.0,0.0,1.0,-0.660799658203,-0.0143652099609,10.2519715088,1.0,0.0,0.0,0.0,1.0,0.0,0.0,0.0,1.0
1491899981499390528,646,1491899981492441152,,7.80777549744,-0.946995913982,90.0,0.000969999993686,1.0,0.0,0.0,0.0,1.0,0.0,0.0,0.0,1.0,-0.365853667259,2.25609779358,-0.0609756112099,1.0,0.0,0.0,0.0,1.0,0.0,0.0,0.0,1.0,-0.579396801758,0.138863696289,10.180145459,1.0,0.0,0.0,0.0,1.0,0.0,0.0,0.0,1.0
1491899981515955843,647,1491899981514001311,,7.8124423027,-0.948451936245,90.0,0.00113600003533,1.0,0.0,0.0,0.0,1.0,0.0,0.0,0.0,1.0,-0.487804889679,2.31707310677,-0.365853667259,1.0,0.0,0.0,0.0,1.0,0.0,0.0,0.0,1.0,-0.555454785156,0.110133276367,10.3573163818,1.0,0.0,0.0,0.0,1.0,0.0,0.0,0.0,1.0
1491899981536651211,648,1491899981534548241,,7.81552219391,-0.951242566109,90.0,0.000979000004008,1.0,0.0,0.0,0.0,1.0,0.0,0.0,0.0,1.0,-0.548780500889,2.19512200356,-0.243902444839,1.0,0.0,0.0,0.0,1.0,0.0,0.0,0.0,1.0,-0.627280834961,-0.0287304199219,10.3812583984,1.0,0.0,0.0,0.0,1.0,0.0,0.0,0.0,1.0
1491899981558086162,649,1491899981555519286,,7.81819009781,-0.951699018478,90.0,0.000961999990977,1.0,0.0,0.0,0.0,1.0,0.0,0.0,0.0,1.0,-0.487804889679,2.62195134163,-0.304878056049,1.0,0.0,0.0,0.0,1.0,0.0,0.0,0.0,1.0,-0.646434448242,0.0574608398438,10.180145459,1.0,0.0,0.0,0.0,1.0,0.0,0.0,0.0,1.0
1491899981577985852,650,1491899981576211216,,7.8190612793,-0.95110732317,90.0,0.000965000013821,1.0,0.0,0.0,0.0,1.0,0.0,0.0,0.0,1.0,-0.365853667259,2.5,-0.12195122242,1.0,0.0,0.0,0.0,1.0,0.0,0.0,0.0,1.0,-0.612915625,-0.0191536132812,10.2232410889,1.0,0.0,0.0,0.0,1.0,0.0,0.0,0.0,1.0
1491899981598952261,651,1491899981597852469,,7.81677007675,-0.951663672924,90.0,0.00103299994953,1.0,0.0,0.0,0.0,1.0,0.0,0.0,0.0,1.0,-0.670731723309,2.43902444839,-0.365853667259,1.0,0.0,0.0,0.0,1.0,0.0,0.0,0.0,1.0,-0.675164868164,-0.0478840332031,10.1753570557,1.0,0.0,0.0,0.0,1.0,0.0,0.0,0.0,1.0
1491899981621143254,652,1491899981618027837,,7.81434822083,-0.950831115246,90.0,0.00114700000267,1.0,0.0,0.0,0.0,1.0,0.0,0.0,0.0,1.0,-0.304878056049,2.07317066193,-0.12195122242,1.0,0.0,0.0,0.0,1.0,0.0,0.0,0.0,1.0,-0.732625708008,0.0861912597656,10.285490332,1.0,0.0,0.0,0.0,1.0,0.0,0.0,0.0,1.0
1491899981642648882,653,1491899981639646069,,7.80998802185,-0.949495315552,90.0,0.00136999995448,1.0,0.0,0.0,0.0,1.0,0.0,0.0,0.0,1.0,-0.365853667259,2.13414645195,-0.304878056049,1.0,0.0,0.0,0.0,1.0,0.0,0.0,0.0,1.0,-0.450109912109,0.0478840332031,10.2280294922,1.0,0.0,0.0,0.0,1.0,0.0,0.0,0.0,1.0
1491899981663342791,654,1491899981660695239,,7.80890035629,-0.951199650764,90.0,0.00110300001688,1.0,0.0,0.0,0.0,1.0,0.0,0.0,0.0,1.0,-0.548780500889,2.13414645195,-0.18292683363,1.0,0.0,0.0,0.0,1.0,0.0,0.0,0.0,1.0,-0.526724328702,0.0,10.1992990723,1.0,0.0,0.0,0.0,1.0,0.0,0.0,0.0,1.0
1491899981684503888,655,1491899981681693315,,7.80860710144,-0.951075971127,90.0,0.00108099996578,1.0,0.0,0.0,0.0,1.0,0.0,0.0,0.0,1.0,-0.548780500889,2.31707310677,-0.12195122242,1.0,0.0,0.0,0.0,1.0,0.0,0.0,0.0,1.0,-0.488417138672,-0.0143652099609,10.2280294922,1.0,0.0,0.0,0.0,1.0,0.0,0.0,0.0,1.0
1491899981705591652,656,1491899981702261339,,7.80962610245,-0.953087568283,90.0,0.00115100003313,1.0,0.0,0.0,0.0,1.0,0.0,0.0,0.0,1.0,-0.487804889679,2.62195134163,-0.18292683363,1.0,0.0,0.0,0.0,1.0,0.0,0.0,0.0,1.0,-0.45489831543,0.0191536132812,10.1992990723,1.0,0.0,0.0,0.0,1.0,0.0,0.0,0.0,1.0
1491899981725768582,657,1491899981723974623,,7.81223630905,-0.951510250568,90.0,0.000981000019237,1.0,0.0,0.0,0.0,1.0,0.0,0.0,0.0,1.0,-0.487804889679,2.37804889679,-0.426829278469,1.0,0.0,0.0,0.0,1.0,0.0,0.0,0.0,1.0,-0.502782348633,0.0526724365234,10.3573163818,1.0,0.0,0.0,0.0,1.0,0.0,0.0,0.0,1.0
1491899981747215147,658,1491899981744585772,,7.8156952858,-0.952505469322,90.0,0.00103699997999,1.0,0.0,0.0,0.0,1.0,0.0,0.0,0.0,1.0,-0.304878056049,2.5,-0.304878056049,1.0,0.0,0.0,0.0,1.0,0.0,0.0,0.0,1.0,-0.555454785156,-0.0287304199219,10.405200415,1.0,0.0,0.0,0.0,1.0,0.0,0.0,0.0,1.0
1491899981767295880,659,1491899981765653223,,7.816883564,-0.953143835068,90.0,0.000991999986582,1.0,0.0,0.0,0.0,1.0,0.0,0.0,0.0,1.0,-0.304878056049,2.25609779358,-0.243902444839,1.0,0.0,0.0,0.0,1.0,0.0,0.0,0.0,1.0,-0.670376464844,-0.00478840332031,10.2136642822,1.0,0.0,0.0,0.0,1.0,0.0,0.0,0.0,1.0
1491899981789346560,660,1491899981786818695,,7.8181643486,-0.950641989708,90.0,0.000968999986071,1.0,0.0,0.0,0.0,1.0,0.0,0.0,0.0,1.0,-0.426829278469,2.68292689323,-0.426829278469,1.0,0.0,0.0,0.0,1.0,0.0,0.0,0.0,1.0,-0.670376464844,0.0287304199219,10.2471831055,1.0,0.0,0.0,0.0,1.0,0.0,0.0,0.0,1.0
1491899981809829375,661,1491899981808072865,,7.81830406189,-0.949601590633,90.0,0.00112300005276,1.0,0.0,0.0,0.0,1.0,0.0,0.0,0.0,1.0,-0.0609756112099,2.5,-0.487804889679,1.0,0.0,0.0,0.0,1.0,0.0,0.0,0.0,1.0,-0.584185168546,-0.134075302102,10.3764699951,1.0,0.0,0.0,0.0,1.0,0.0,0.0,0.0,1.0
1491899981830944483,662,1491899981828422503,,7.8180680275,-0.947960138321,90.0,0.00109200004954,1.0,0.0,0.0,0.0,1.0,0.0,0.0,0.0,1.0,-0.426829278469,2.43902444839,-0.12195122242,1.0,0.0,0.0,0.0,1.0,0.0,0.0,0.0,1.0,-0.708683691406,0.0191536132812,10.2376062988,1.0,0.0,0.0,0.0,1.0,0.0,0.0,0.0,1.0
1491899981853028809,663,1491899981850289381,,7.82320737839,-0.941041648388,90.0,0.00624699983746,1.0,0.0,0.0,0.0,1.0,0.0,0.0,0.0,1.0,-0.426829278469,2.37804889679,-0.670731723309,1.0,0.0,0.0,0.0,1.0,0.0,0.0,0.0,1.0,-0.541089611728,0.0861912597656,10.3573163818,1.0,0.0,0.0,0.0,1.0,0.0,0.0,0.0,1.0
1491899981873548187,664,1491899981870631363,,7.821788311,-0.941124379635,90.0,0.00107500003651,1.0,0.0,0.0,0.0,1.0,0.0,0.0,0.0,1.0,-0.243902444839,2.07317066193,-0.365853667259,1.0,0.0,0.0,0.0,1.0,0.0,0.0,0.0,1.0,-0.565031591797,0.0,10.3094323486,1.0,0.0,0.0,0.0,1.0,0.0,0.0,0.0,1.0
1491899981895430534,665,1491899981891898971,,7.82262134552,-0.942614018917,90.0,0.00131500000134,1.0,0.0,0.0,0.0,1.0,0.0,0.0,0.0,1.0,-0.731707334518,2.25609779358,-0.426829278469,1.0,0.0,0.0,0.0,1.0,0.0,0.0,0.0,1.0,-0.61770402832,0.0861912597656,10.2184526855,1.0,0.0,0.0,0.0,1.0,0.0,0.0,0.0,1.0
1491899981917484651,666,1491899981913658974,,7.82305574417,-0.940516591072,90.0,0.00104300002567,1.0,0.0,0.0,0.0,1.0,0.0,0.0,0.0,1.0,-0.548780500889,2.25609779358,-0.365853667259,1.0,0.0,0.0,0.0,1.0,0.0,0.0,0.0,1.0,-0.474051928711,-0.0478840332031,10.4482960449,1.0,0.0,0.0,0.0,1.0,0.0,0.0,0.0,1.0
1491899981936799915,667,1491899981934023352,,7.82506370544,-0.942670404911,90.0,0.00123199995141,1.0,0.0,0.0,0.0,1.0,0.0,0.0,0.0,1.0,-0.609756112099,2.07317066193,-0.426829278469,1.0,0.0,0.0,0.0,1.0,0.0,0.0,0.0,1.0,-0.565031591797,0.0478840332031,10.4147772217,1.0,0.0,0.0,0.0,1.0,0.0,0.0,0.0,1.0
1491899981960393928,668,1491899981957336636,,7.82697868347,-0.942924261093,90.0,0.00136999995448,1.0,0.0,0.0,0.0,1.0,0.0,0.0,0.0,1.0,-0.426829278469,2.62195134163,-0.243902444839,1.0,0.0,0.0,0.0,1.0,0.0,0.0,0.0,1.0,-0.507570751953,0.00478840332031,10.3046439453,1.0,0.0,0.0,0.0,1.0,0.0,0.0,0.0,1.0
1491899981982786380,669,1491899981979882681,,7.82651948929,-0.942359507084,90.0,0.00479800021276,1.0,0.0,0.0,0.0,1.0,0.0,0.0,0.0,1.0,-0.670731723309,2.13414645195,-0.18292683363,1.0,0.0,0.0,0.0,1.0,0.0,0.0,0.0,1.0,-0.588973571866,0.00957680664062,10.2519715088,1.0,0.0,0.0,0.0,1.0,0.0,0.0,0.0,1.0
1491899982003649872,670,1491899982000889664,,7.82732534409,-0.942247092724,90.0,0.001111999969,1.0,0.0,0.0,0.0,1.0,0.0,0.0,0.0,1.0,-0.731707334518,2.07317066193,-0.12195122242,1.0,0.0,0.0,0.0,1.0,0.0,0.0,0.0,1.0,-0.517147558594,-0.114921679688,10.2471831055,1.0,0.0,0.0,0.0,1.0,0.0,0.0,0.0,1.0
1491899982027189876,671,1491899982023512011,,7.82955741882,-0.942042768002,90.0,0.00180099997669,1.0,0.0,0.0,0.0,1.0,0.0,0.0,0.0,1.0,-0.0609756112099,2.07317066193,-0.365853667259,1.0,0.0,0.0,0.0,1.0,0.0,0.0,0.0,1.0,-0.541089611728,0.0,10.3381627686,1.0,0.0,0.0,0.0,1.0,0.0,0.0,0.0,1.0
1491899982046906754,672,1491899982044147274,,7.82696485519,-0.940371155739,90.0,0.00202100002207,1.0,0.0,0.0,0.0,1.0,0.0,0.0,0.0,1.0,-0.487804889679,2.19512200356,-0.548780500889,1.0,0.0,0.0,0.0,1.0,0.0,0.0,0.0,1.0,-0.507570751953,0.00957680664062,10.3237975586,1.0,0.0,0.0,0.0,1.0,0.0,0.0,0.0,1.0
1491899982068594830,673,1491899982065792954,,7.82636785507,-0.940577745438,90.0,0.00147400004789,1.0,0.0,0.0,0.0,1.0,0.0,0.0,0.0,1.0,-0.426829278469,2.43902444839,-0.365853667259,1.0,0.0,0.0,0.0,1.0,0.0,0.0,0.0,1.0,-0.60812722168,0.0287304199219,10.0748005859,1.0,0.0,0.0,0.0,1.0,0.0,0.0,0.0,1.0
1491899982089240874,674,1491899982086390197,,7.82522153854,-0.94173425436,90.0,0.00112399994396,1.0,0.0,0.0,0.0,1.0,0.0,0.0,0.0,1.0,-0.426829278469,2.5,-0.426829278469,1.0,0.0,0.0,0.0,1.0,0.0,0.0,0.0,1.0,-0.670376464844,0.0526724365234,10.1945106689,1.0,0.0,0.0,0.0,1.0,0.0,0.0,0.0,1.0
1491899982110689680,675,1491899982107786137,,7.82783699036,-0.940862894058,90.0,0.00108800001908,1.0,0.0,0.0,0.0,1.0,0.0,0.0,0.0,1.0,-0.487804889679,2.31707310677,0.0,1.0,0.0,0.0,0.0,1.0,0.0,0.0,0.0,1.0,-0.646434448242,-0.0574608398438,10.2136642822,1.0,0.0,0.0,0.0,1.0,0.0,0.0,0.0,1.0
1491899982131477026,676,1491899982128682599,,7.8298459053,-0.941681325436,90.0,0.00107899995055,1.0,0.0,0.0,0.0,1.0,0.0,0.0,0.0,1.0,-0.426829278469,2.19512200356,-0.487804889679,1.0,0.0,0.0,0.0,1.0,0.0,0.0,0.0,1.0,-0.694318481445,0.0478840332031,10.3237975586,1.0,0.0,0.0,0.0,1.0,0.0,0.0,0.0,1.0
1491899982152563644,677,1491899982149713591,,7.83048725128,-0.942244589329,90.0,0.00101699994411,1.0,0.0,0.0,0.0,1.0,0.0,0.0,0.0,1.0,-0.426829278469,2.43902444839,-0.609756112099,1.0,0.0,0.0,0.0,1.0,0.0,0.0,0.0,1.0,-0.603338854892,0.0526724365234,10.1466266357,1.0,0.0,0.0,0.0,1.0,0.0,0.0,0.0,1.0
1491899982174403908,678,1491899982170790313,,7.83637857437,-0.939256370068,90.0,0.0010150000453,1.0,0.0,0.0,0.0,1.0,0.0,0.0,0.0,1.0,-0.609756112099,2.19512200356,-0.487804889679,1.0,0.0,0.0,0.0,1.0,0.0,0.0,0.0,1.0,-0.574608398438,0.114921679688,10.2615483154,1.0,0.0,0.0,0.0,1.0,0.0,0.0,0.0,1.0
1491899982195299275,679,1491899982192156566,,7.83879232407,-0.940054237843,90.0,0.00113700004295,1.0,0.0,0.0,0.0,1.0,0.0,0.0,0.0,1.0,-0.365853667259,2.13414645195,-0.365853667259,1.0,0.0,0.0,0.0,1.0,0.0,0.0,0.0,1.0,-0.660799658203,0.177170922852,10.2088758789,1.0,0.0,0.0,0.0,1.0,0.0,0.0,0.0,1.0
1491899982216051830,680,1491899982213110892,,7.84038448334,-0.944047093391,90.0,0.00111499999184,1.0,0.0,0.0,0.0,1.0,0.0,0.0,0.0,1.0,-0.548780500889,2.13414645195,-0.18292683363,1.0,0.0,0.0,0.0,1.0,0.0,0.0,0.0,1.0,-0.550666381836,0.0574608398438,10.4722380615,1.0,0.0,0.0,0.0,1.0,0.0,0.0,0.0,1.0
1491899982236997146,681,1491899982234240166,,7.84125328064,-0.945779681206,90.0,0.00118200003635,1.0,0.0,0.0,0.0,1.0,0.0,0.0,0.0,1.0,-0.609756112099,2.31707310677,-0.304878056049,1.0,0.0,0.0,0.0,1.0,0.0,0.0,0.0,1.0,-0.622492431641,-0.0814028564453,10.405200415,1.0,0.0,0.0,0.0,1.0,0.0,0.0,0.0,1.0
1491899982257458659,682,1491899982255537565,,7.83914852142,-0.947781741619,90.0,0.00106999999844,1.0,0.0,0.0,0.0,1.0,0.0,0.0,0.0,1.0,-0.548780500889,2.43902444839,-0.0609756112099,1.0,0.0,0.0,0.0,1.0,0.0,0.0,0.0,1.0,-0.565031591797,0.0478840332031,10.1418382324,1.0,0.0,0.0,0.0,1.0,0.0,0.0,0.0,1.0
1491899982278269756,683,1491899982276755277,,7.83816003799,-0.950648128986,90.0,0.00118000002112,1.0,0.0,0.0,0.0,1.0,0.0,0.0,0.0,1.0,-0.670731723309,2.43902444839,0.0609756112099,1.0,0.0,0.0,0.0,1.0,0.0,0.0,0.0,1.0,-0.632069238281,-0.0814028564453,10.3094323486,1.0,0.0,0.0,0.0,1.0,0.0,0.0,0.0,1.0
1491899982298841686,684,1491899982297254394,,7.83527994156,-0.951819241047,90.0,0.00109000003431,1.0,0.0,0.0,0.0,1.0,0.0,0.0,0.0,1.0,-0.670731723309,2.43902444839,0.0,1.0,0.0,0.0,0.0,1.0,0.0,0.0,0.0,1.0,-0.684741674805,0.00957680664062,10.2759135254,1.0,0.0,0.0,0.0,1.0,0.0,0.0,0.0,1.0
1491899982319742835,685,1491899982318201376,,7.83267688751,-0.95065844059,90.0,0.00112300005276,1.0,0.0,0.0,0.0,1.0,0.0,0.0,0.0,1.0,-0.365853667259,2.31707310677,-0.12195122242,1.0,0.0,0.0,0.0,1.0,0.0,0.0,0.0,1.0,-0.651222851562,-0.076614453125,10.2471831055,1.0,0.0,0.0,0.0,1.0,0.0,0.0,0.0,1.0
1491899982341048880,686,1491899982339551223,,7.83168268204,-0.950616300106,90.0,0.00197799992748,1.0,0.0,0.0,0.0,1.0,0.0,0.0,0.0,1.0,-0.426829278469,2.01219511032,-0.304878056049,1.0,0.0,0.0,0.0,1.0,0.0,0.0,0.0,1.0,-0.536301208408,0.0574608398438,10.2376062988,1.0,0.0,0.0,0.0,1.0,0.0,0.0,0.0,1.0
1491899982362272685,687,1491899982360381747,,7.83093261719,-0.950489163399,90.0,0.00136500003282,1.0,0.0,0.0,0.0,1.0,0.0,0.0,0.0,1.0,-0.426829278469,2.25609779358,-0.18292683363,1.0,0.0,0.0,0.0,1.0,0.0,0.0,0.0,1.0,-0.502782348633,-0.0478840332031,10.2519715088,1.0,0.0,0.0,0.0,1.0,0.0,0.0,0.0,1.0
1491899982383749407,688,1491899982381988157,,7.83114147186,-0.950869083405,90.0,0.00105600000825,1.0,0.0,0.0,0.0,1.0,0.0,0.0,0.0,1.0,-0.548780500889,1.95121955872,0.0,1.0,0.0,0.0,0.0,1.0,0.0,0.0,0.0,1.0,-0.550666381836,-0.067037651051,10.2471831055,1.0,0.0,0.0,0.0,1.0,0.0,0.0,0.0,1.0
1491899982404495295,689,1491899982402852430,,7.83334302902,-0.950992643833,90.0,0.00124400004279,1.0,0.0,0.0,0.0,1.0,0.0,0.0,0.0,1.0,-0.487804889679,2.37804889679,-0.304878056049,1.0,0.0,0.0,0.0,1.0,0.0,0.0,0.0,1.0,-0.430956298828,0.0478840332031,10.3046439453,1.0,0.0,0.0,0.0,1.0,0.0,0.0,0.0,1.0
1491899982428282695,690,1491899982424055090,,7.83791017532,-0.952431440353,90.0,0.00111399998423,1.0,0.0,0.0,0.0,1.0,0.0,0.0,0.0,1.0,-0.609756112099,2.25609779358,-0.609756112099,1.0,0.0,0.0,0.0,1.0,0.0,0.0,0.0,1.0,-0.497993945312,0.0574608398438,10.3764699951,1.0,0.0,0.0,0.0,1.0,0.0,0.0,0.0,1.0
1491899982446684937,691,1491899982444875978,,7.83387565613,-0.952027857304,90.0,0.00198399997316,1.0,0.0,0.0,0.0,1.0,0.0,0.0,0.0,1.0,-0.731707334518,2.25609779358,-0.548780500889,1.0,0.0,0.0,0.0,1.0,0.0,0.0,0.0,1.0,-0.469263525391,-0.0909796630859,10.3190091553,1.0,0.0,0.0,0.0,1.0,0.0,0.0,0.0,1.0
1491899982467238690,692,1491899982465476606,,7.83097219467,-0.953157007694,90.0,0.00138699996751,1.0,0.0,0.0,0.0,1.0,0.0,0.0,0.0,1.0,-0.243902444839,2.43902444839,-0.365853667259,1.0,0.0,0.0,0.0,1.0,0.0,0.0,0.0,1.0,-0.603338854892,0.0287304199219,10.2471831055,1.0,0.0,0.0,0.0,1.0,0.0,0.0,0.0,1.0
1491899982488431922,693,1491899982486693120,,7.82979679108,-0.955883681774,90.0,0.00105399999302,1.0,0.0,0.0,0.0,1.0,0.0,0.0,0.0,1.0,-0.18292683363,2.43902444839,-0.365853667259,1.0,0.0,0.0,0.0,1.0,0.0,0.0,0.0,1.0,-0.656011254883,0.0574608398438,10.180145459,1.0,0.0,0.0,0.0,1.0,0.0,0.0,0.0,1.0
1491899982509712186,694,1491899982507919633,,7.82973480225,-0.953414261341,90.0,0.00110800005496,1.0,0.0,0.0,0.0,1.0,0.0,0.0,0.0,1.0,-0.304878056049,2.62195134163,-0.426829278469,1.0,0.0,0.0,0.0,1.0,0.0,0.0,0.0,1.0,-0.727837304687,0.0526724365234,10.2519715088,1.0,0.0,0.0,0.0,1.0,0.0,0.0,0.0,1.0
1491899982530715887,695,1491899982529008074,,7.829621315,-0.951222658157,90.0,0.000961999990977,1.0,0.0,0.0,0.0,1.0,0.0,0.0,0.0,1.0,-0.609756112099,2.13414645195,-0.304878056049,1.0,0.0,0.0,0.0,1.0,0.0,0.0,0.0,1.0,-0.723048901367,0.0478840332031,10.1753570557,1.0,0.0,0.0,0.0,1.0,0.0,0.0,0.0,1.0
1491899982551714744,696,1491899982549924327,,7.82723236084,-0.95265519619,90.0,0.000959000026342,1.0,0.0,0.0,0.0,1.0,0.0,0.0,0.0,1.0,-0.365853667259,2.5,-0.365853667259,1.0,0.0,0.0,0.0,1.0,0.0,0.0,0.0,1.0,-0.699106884766,-0.0383072265625,10.2711251221,1.0,0.0,0.0,0.0,1.0,0.0,0.0,0.0,1.0
1491899982572263445,697,1491899982571080372,,7.82794761658,-0.954935789108,90.0,0.00101799995173,1.0,0.0,0.0,0.0,1.0,0.0,0.0,0.0,1.0,-0.670731723309,2.31707310677,-0.18292683363,1.0,0.0,0.0,0.0,1.0,0.0,0.0,0.0,1.0,-0.541089611728,-0.0143652099609,10.3333743652,1.0,0.0,0.0,0.0,1.0,0.0,0.0,0.0,1.0
1491899982593727198,698,1491899982592273083,,7.82712507248,-0.956296443939,90.0,0.000968999986071,1.0,0.0,0.0,0.0,1.0,0.0,0.0,0.0,1.0,-0.548780500889,2.13414645195,-0.487804889679,1.0,0.0,0.0,0.0,1.0,0.0,0.0,0.0,1.0,-0.526724328702,0.110133276367,10.1466266357,1.0,0.0,0.0,0.0,1.0,0.0,0.0,0.0,1.0
1491899982616123191,699,1491899982613611940,,7.82811403275,-0.953794538975,90.0,0.000981000019237,1.0,0.0,0.0,0.0,1.0,0.0,0.0,0.0,1.0,-0.548780500889,2.43902444839,-0.18292683363,1.0,0.0,0.0,0.0,1.0,0.0,0.0,0.0,1.0,-0.474051928711,-0.0335188255255,10.4004120117,1.0,0.0,0.0,0.0,1.0,0.0,0.0,0.0,1.0
1491899982638848663,700,1491899982636194652,,7.82739400864,-0.951893568039,90.0,0.000968999986071,1.0,0.0,0.0,0.0,1.0,0.0,0.0,0.0,1.0,-0.731707334518,2.74390244484,-0.18292683363,1.0,0.0,0.0,0.0,1.0,0.0,0.0,0.0,1.0,-0.579396801758,0.0478840332031,10.3429511719,1.0,0.0,0.0,0.0,1.0,0.0,0.0,0.0,1.0
1491899982660348197,701,1491899982657884968,,7.83127641678,-0.952602565289,90.0,0.00268499995582,1.0,0.0,0.0,0.0,1.0,0.0,0.0,0.0,1.0,-0.487804889679,2.31707310677,-0.243902444839,1.0,0.0,0.0,0.0,1.0,0.0,0.0,0.0,1.0,-0.727837304687,0.0287304199219,10.0508585693,1.0,0.0,0.0,0.0,1.0,0.0,0.0,0.0,1.0
1491899982683179190,702,1491899982679705596,,7.83064651489,-0.952934980392,90.0,0.0026839999482,1.0,0.0,0.0,0.0,1.0,0.0,0.0,0.0,1.0,-0.18292683363,2.01219511032,-0.18292683363,1.0,0.0,0.0,0.0,1.0,0.0,0.0,0.0,1.0,-0.550666381836,0.0430956298828,10.314220752,1.0,0.0,0.0,0.0,1.0,0.0,0.0,0.0,1.0
1491899982704206797,703,1491899982701853255,,7.83125162125,-0.954569101334,90.0,0.00419799983501,1.0,0.0,0.0,0.0,1.0,0.0,0.0,0.0,1.0,-0.609756112099,2.31707310677,-0.243902444839,1.0,0.0,0.0,0.0,1.0,0.0,0.0,0.0,1.0,-0.550666381836,0.0143652099609,10.3381627686,1.0,0.0,0.0,0.0,1.0,0.0,0.0,0.0,1.0
1491899982726163884,704,1491899982723841227,,7.82936096191,-0.951844632626,90.0,0.00134299998172,1.0,0.0,0.0,0.0,1.0,0.0,0.0,0.0,1.0,-0.18292683363,1.8902438879,-0.0609756112099,1.0,0.0,0.0,0.0,1.0,0.0,0.0,0.0,1.0,-0.450109912109,0.0526724365234,10.2711251221,1.0,0.0,0.0,0.0,1.0,0.0,0.0,0.0,1.0
1491899982747129616,705,1491899982745019616,,7.82871961594,-0.954799711704,90.0,0.00164300005417,1.0,0.0,0.0,0.0,1.0,0.0,0.0,0.0,1.0,-0.426829278469,2.62195134163,-0.609756112099,1.0,0.0,0.0,0.0,1.0,0.0,0.0,0.0,1.0,-0.531512805087,-0.0430956298828,10.2902787354,1.0,0.0,0.0,0.0,1.0,0.0,0.0,0.0,1.0
1491899982767209619,706,1491899982765099827,,7.82701921463,-0.955202162266,90.0,0.001511999988,1.0,0.0,0.0,0.0,1.0,0.0,0.0,0.0,1.0,-0.304878056049,2.43902444839,-0.18292683363,1.0,0.0,0.0,0.0,1.0,0.0,0.0,0.0,1.0,-0.555454785156,-0.0861912597656,10.165780249,1.0,0.0,0.0,0.0,1.0,0.0,0.0,0.0,1.0
1491899982788053112,707,1491899982786097122,,7.82681417465,-0.955417394638,90.0,0.00115499994718,1.0,0.0,0.0,0.0,1.0,0.0,0.0,0.0,1.0,-0.548780500889,2.56097555161,-0.18292683363,1.0,0.0,0.0,0.0,1.0,0.0,0.0,0.0,1.0,-0.670376464844,0.0335188255255,10.285490332,1.0,0.0,0.0,0.0,1.0,0.0,0.0,0.0,1.0
1491899982809283844,708,1491899982806701395,,7.8263168335,-0.959723174572,90.0,0.0010300000431,1.0,0.0,0.0,0.0,1.0,0.0,0.0,0.0,1.0,-0.731707334518,2.56097555161,-0.731707334518,1.0,0.0,0.0,0.0,1.0,0.0,0.0,0.0,1.0,-0.565031591797,0.0335188255255,10.2376062988,1.0,0.0,0.0,0.0,1.0,0.0,0.0,0.0,1.0
1491899982830178118,709,1491899982827795669,,7.82683420181,-0.956711411476,90.0,0.00124999997206,1.0,0.0,0.0,0.0,1.0,0.0,0.0,0.0,1.0,-0.304878056049,2.31707310677,-0.304878056049,1.0,0.0,0.0,0.0,1.0,0.0,0.0,0.0,1.0,-0.694318481445,0.0,10.4530844482,1.0,0.0,0.0,0.0,1.0,0.0,0.0,0.0,1.0
1491899982850866246,710,1491899982848241193,,7.82591867447,-0.952983617783,90.0,0.00111299997661,1.0,0.0,0.0,0.0,1.0,0.0,0.0,0.0,1.0,-0.426829278469,2.37804889679,-0.365853667259,1.0,0.0,0.0,0.0,1.0,0.0,0.0,0.0,1.0,-0.794874951172,0.00478840332031,10.2807019287,1.0,0.0,0.0,0.0,1.0,0.0,0.0,0.0,1.0
1491899982871385415,711,1491899982868859061,,7.8245382309,-0.953270435333,90.0,0.00105099997018,1.0,0.0,0.0,0.0,1.0,0.0,0.0,0.0,1.0,-0.548780500889,2.5,-0.304878056049,1.0,0.0,0.0,0.0,1.0,0.0,0.0,0.0,1.0,-0.708683691406,0.0478840332031,10.2088758789,1.0,0.0,0.0,0.0,1.0,0.0,0.0,0.0,1.0
1491899982891857033,712,1491899982889411199,,7.82577896118,-0.952003419399,90.0,0.00105099997018,1.0,0.0,0.0,0.0,1.0,0.0,0.0,0.0,1.0,-0.304878056049,2.07317066193,-0.365853667259,1.0,0.0,0.0,0.0,1.0,0.0,0.0,0.0,1.0,-0.679953271484,0.0239420166016,10.1753570557,1.0,0.0,0.0,0.0,1.0,0.0,0.0,0.0,1.0
1491899982913056411,713,1491899982910403181,,7.8266582489,-0.954676151276,90.0,0.000981000019237,1.0,0.0,0.0,0.0,1.0,0.0,0.0,0.0,1.0,-0.243902444839,2.25609779358,-0.243902444839,1.0,0.0,0.0,0.0,1.0,0.0,0.0,0.0,1.0,-0.588973571866,-0.0526724365234,10.3860468018,1.0,0.0,0.0,0.0,1.0,0.0,0.0,0.0,1.0
1491899982932703810,714,1491899982930530684,,7.826212883,-0.956393480301,90.0,0.00101000000723,1.0,0.0,0.0,0.0,1.0,0.0,0.0,0.0,1.0,-0.18292683363,2.31707310677,-0.12195122242,1.0,0.0,0.0,0.0,1.0,0.0,0.0,0.0,1.0,-0.560243188477,0.0239420166016,10.3285859619,1.0,0.0,0.0,0.0,1.0,0.0,0.0,0.0,1.0
1491899982954250219,715,1491899982951923969,,7.82493972778,-0.955846190453,90.0,0.00104300002567,1.0,0.0,0.0,0.0,1.0,0.0,0.0,0.0,1.0,-0.426829278469,2.13414645195,-0.243902444839,1.0,0.0,0.0,0.0,1.0,0.0,0.0,0.0,1.0,-0.636857641602,0.105344873047,10.2615483154,1.0,0.0,0.0,0.0,1.0,0.0,0.0,0.0,1.0
1491899982976398660,716,1491899982972653659,,7.82384872437,-0.956067204475,90.0,0.000964000006206,1.0,0.0,0.0,0.0,1.0,0.0,0.0,0.0,1.0,-0.609756112099,2.13414645195,-0.0609756112099,1.0,0.0,0.0,0.0,1.0,0.0,0.0,0.0,1.0,-0.493205541992,0.076614453125,10.2328178955,1.0,0.0,0.0,0.0,1.0,0.0,0.0,0.0,1.0
1491899983004979445,717,1491899982996233246,,7.82279920578,-0.956244289875,90.0,0.00130700005684,1.0,0.0,0.0,0.0,1.0,0.0,0.0,0.0,1.0,-0.304878056049,2.19512200356,-0.243902444839,1.0,0.0,0.0,0.0,1.0,0.0,0.0,0.0,1.0,-0.61770402832,0.0191536132812,10.4004120117,1.0,0.0,0.0,0.0,1.0,0.0,0.0,0.0,1.0
1491899983019589968,718,1491899983017406218,,7.82458496094,-0.952709019184,90.0,0.0010890000267,1.0,0.0,0.0,0.0,1.0,0.0,0.0,0.0,1.0,-0.548780500889,2.43902444839,-0.304878056049,1.0,0.0,0.0,0.0,1.0,0.0,0.0,0.0,1.0,-0.632069238281,0.00478840332031,10.3333743652,1.0,0.0,0.0,0.0,1.0,0.0,0.0,0.0,1.0
1491899983041112888,719,1491899983038801325,,7.82274580002,-0.95394963026,90.0,0.00312300003134,1.0,0.0,0.0,0.0,1.0,0.0,0.0,0.0,1.0,-0.365853667259,2.01219511032,-0.304878056049,1.0,0.0,0.0,0.0,1.0,0.0,0.0,0.0,1.0,-0.603338854892,-0.067037651051,10.3190091553,1.0,0.0,0.0,0.0,1.0,0.0,0.0,0.0,1.0
1491899983062821485,720,1491899983059992057,,7.82426595688,-0.954359948635,90.0,0.00111499999184,1.0,0.0,0.0,0.0,1.0,0.0,0.0,0.0,1.0,-0.304878056049,2.25609779358,-0.18292683363,1.0,0.0,0.0,0.0,1.0,0.0,0.0,0.0,1.0,-0.555454785156,-0.0814028564453,10.4387192383,1.0,0.0,0.0,0.0,1.0,0.0,0.0,0.0,1.0
1491899983084625134,721,1491899983080822269,,7.82379198074,-0.951491177082,90.0,0.00126199994702,1.0,0.0,0.0,0.0,1.0,0.0,0.0,0.0,1.0,0.0,2.01219511032,-0.12195122242,1.0,0.0,0.0,0.0,1.0,0.0,0.0,0.0,1.0,-0.45968671875,0.067037651051,10.1897222656,1.0,0.0,0.0,0.0,1.0,0.0,0.0,0.0,1.0
1491899983104743678,722,1491899983102193678,,7.82427692413,-0.954336106777,90.0,0.0014009999577,1.0,0.0,0.0,0.0,1.0,0.0,0.0,0.0,1.0,-0.548780500889,2.5,-0.0609756112099,1.0,0.0,0.0,0.0,1.0,0.0,0.0,0.0,1.0,-0.507570751953,-0.0287304199219,10.2902787354,1.0,0.0,0.0,0.0,1.0,0.0,0.0,0.0,1.0
1491899983125112431,723,1491899983122267119,,7.82803010941,-0.953913748264,90.0,0.0010529999854,1.0,0.0,0.0,0.0,1.0,0.0,0.0,0.0,1.0,-0.670731723309,2.25609779358,-0.548780500889,1.0,0.0,0.0,0.0,1.0,0.0,0.0,0.0,1.0,-0.560243188477,0.0526724365234,10.3094323486,1.0,0.0,0.0,0.0,1.0,0.0,0.0,0.0,1.0
1491899983146568580,724,1491899983142851549,,7.82474851608,-0.955312013626,90.0,0.00115599995479,1.0,0.0,0.0,0.0,1.0,0.0,0.0,0.0,1.0,-0.365853667259,1.95121955872,-0.18292683363,1.0,0.0,0.0,0.0,1.0,0.0,0.0,0.0,1.0,-0.488417138672,0.0718260498047,10.285490332,1.0,0.0,0.0,0.0,1.0,0.0,0.0,0.0,1.0
1491899983166528271,725,1491899983164038635,,7.82623767853,-0.957813382149,90.0,0.00137099996209,1.0,0.0,0.0,0.0,1.0,0.0,0.0,0.0,1.0,-0.609756112099,2.5,-0.365853667259,1.0,0.0,0.0,0.0,1.0,0.0,0.0,0.0,1.0,-0.45489831543,0.0,10.4435076416,1.0,0.0,0.0,0.0,1.0,0.0,0.0,0.0,1.0
1491899983186271763,726,1491899983185052023,,7.82878494263,-0.959357857704,90.0,0.00184000004083,1.0,0.0,0.0,0.0,1.0,0.0,0.0,0.0,1.0,-0.243902444839,2.56097555161,-0.243902444839,1.0,0.0,0.0,0.0,1.0,0.0,0.0,0.0,1.0,-0.636857641602,-0.143652099609,10.1562034424,1.0,0.0,0.0,0.0,1.0,0.0,0.0,0.0,1.0
1491899983206818797,727,1491899983205327808,,7.8259601593,-0.961000442505,90.0,0.00104899995495,1.0,0.0,0.0,0.0,1.0,0.0,0.0,0.0,1.0,-0.548780500889,2.43902444839,-0.548780500889,1.0,0.0,0.0,0.0,1.0,0.0,0.0,0.0,1.0,-0.60812722168,-0.0287304199219,10.0939541992,1.0,0.0,0.0,0.0,1.0,0.0,0.0,0.0,1.0
1491899983227489009,728,1491899983226296405,,7.82400369644,-0.958660960197,90.0,0.000980000011623,1.0,0.0,0.0,0.0,1.0,0.0,0.0,0.0,1.0,-0.487804889679,2.37804889679,-0.243902444839,1.0,0.0,0.0,0.0,1.0,0.0,0.0,0.0,1.0,-0.660799658203,0.124498486328,10.1897222656,1.0,0.0,0.0,0.0,1.0,0.0,0.0,0.0,1.0
1491899983248769272,729,1491899983247298960,,7.82330751419,-0.958241045475,90.0,0.000969999993686,1.0,0.0,0.0,0.0,1.0,0.0,0.0,0.0,1.0,-0.365853667259,2.80487799644,-0.487804889679,1.0,0.0,0.0,0.0,1.0,0.0,0.0,0.0,1.0,-0.560243188477,-0.067037651051,10.4243540283,1.0,0.0,0.0,0.0,1.0,0.0,0.0,0.0,1.0
1491899983269985213,730,1491899983268568286,,7.82608747482,-0.958607971668,90.0,0.000960999983363,1.0,0.0,0.0,0.0,1.0,0.0,0.0,0.0,1.0,-0.548780500889,2.31707310677,-0.426829278469,1.0,0.0,0.0,0.0,1.0,0.0,0.0,0.0,1.0,-0.679953271484,0.067037651051,10.2567599121,1.0,0.0,0.0,0.0,1.0,0.0,0.0,0.0,1.0
1491899983290593185,731,1491899983289386674,,7.82566356659,-0.954936623573,90.0,0.000968999986071,1.0,0.0,0.0,0.0,1.0,0.0,0.0,0.0,1.0,-0.548780500889,2.19512200356,-0.0609756112099,1.0,0.0,0.0,0.0,1.0,0.0,0.0,0.0,1.0,-0.565031591797,0.110133276367,10.180145459,1.0,0.0,0.0,0.0,1.0,0.0,0.0,0.0,1.0
1491899983311859646,732,1491899983310413604,,7.82798814774,-0.95575261116,90.0,0.000962999998592,1.0,0.0,0.0,0.0,1.0,0.0,0.0,0.0,1.0,-0.243902444839,2.13414645195,-0.609756112099,1.0,0.0,0.0,0.0,1.0,0.0,0.0,0.0,1.0,-0.622492431641,-0.0526724365234,10.3333743652,1.0,0.0,0.0,0.0,1.0,0.0,0.0,0.0,1.0
1491899983332727878,733,1491899983331451993,,7.82898139954,-0.957295179367,90.0,0.000962999998592,1.0,0.0,0.0,0.0,1.0,0.0,0.0,0.0,1.0,-0.548780500889,2.31707310677,-0.548780500889,1.0,0.0,0.0,0.0,1.0,0.0,0.0,0.0,1.0,-0.670376464844,0.110133276367,10.2423947021,1.0,0.0,0.0,0.0,1.0,0.0,0.0,0.0,1.0
1491899983353275694,734,1491899983351877569,,7.83060359955,-0.958331346512,90.0,0.0009710000013,1.0,0.0,0.0,0.0,1.0,0.0,0.0,0.0,1.0,-0.304878056049,2.13414645195,-0.365853667259,1.0,0.0,0.0,0.0,1.0,0.0,0.0,0.0,1.0,-0.569819995117,0.0718260498047,9.96466730957,1.0,0.0,0.0,0.0,1.0,0.0,0.0,0.0,1.0
1491899983374595697,735,1491899983373217520,,7.82883262634,-0.956581175327,90.0,0.000956000003498,1.0,0.0,0.0,0.0,1.0,0.0,0.0,0.0,1.0,-0.609756112099,2.07317066193,-0.304878056049,1.0,0.0,0.0,0.0,1.0,0.0,0.0,0.0,1.0,-0.521935925381,0.0,10.3285859619,1.0,0.0,0.0,0.0,1.0,0.0,0.0,0.0,1.0
1491899983397993982,736,1491899983394533096,,7.82279729843,-0.948854625225,90.0,0.00110600003973,1.0,0.0,0.0,0.0,1.0,0.0,0.0,0.0,1.0,-0.18292683363,2.31707310677,-0.426829278469,1.0,0.0,0.0,0.0,1.0,0.0,0.0,0.0,1.0,-0.550666381836,0.0478840332031,10.2759135254,1.0,0.0,0.0,0.0,1.0,0.0,0.0,0.0,1.0
1491899983419488672,737,1491899983415376849,,7.82033157349,-0.950142145157,90.0,0.00105399999302,1.0,0.0,0.0,0.0,1.0,0.0,0.0,0.0,1.0,-0.487804889679,2.37804889679,-0.304878056049,1.0,0.0,0.0,0.0,1.0,0.0,0.0,0.0,1.0,-0.598550451572,0.0574608398438,10.2184526855,1.0,0.0,0.0,0.0,1.0,0.0,0.0,0.0,1.0
1491899983438353415,738,1491899983435921643,,7.82057905197,-0.95071798563,90.0,0.00105600000825,1.0,0.0,0.0,0.0,1.0,0.0,0.0,0.0,1.0,-0.548780500889,2.5,-0.0609756112099,1.0,0.0,0.0,0.0,1.0,0.0,0.0,0.0,1.0,-0.61770402832,-0.0287304199219,10.2902787354,1.0,0.0,0.0,0.0,1.0,0.0,0.0,0.0,1.0
1491899983458795449,739,1491899983456885136,,7.8166270256,-0.949938237667,90.0,0.00107899995055,1.0,0.0,0.0,0.0,1.0,0.0,0.0,0.0,1.0,-0.548780500889,2.56097555161,-0.304878056049,1.0,0.0,0.0,0.0,1.0,0.0,0.0,0.0,1.0,-0.555454785156,-0.0622492431641,10.1178962158,1.0,0.0,0.0,0.0,1.0,0.0,0.0,0.0,1.0
1491899983479306598,740,1491899983478101962,,7.81681585312,-0.949528157711,90.0,0.00115200004075,1.0,0.0,0.0,0.0,1.0,0.0,0.0,0.0,1.0,-0.670731723309,2.43902444839,-0.243902444839,1.0,0.0,0.0,0.0,1.0,0.0,0.0,0.0,1.0,-0.636857641602,0.0526724365234,10.2040874756,1.0,0.0,0.0,0.0,1.0,0.0,0.0,0.0,1.0
1491899983504571810,741,1491899983498853632,,7.81526279449,-0.950262010098,90.0,0.0011269999668,1.0,0.0,0.0,0.0,1.0,0.0,0.0,0.0,1.0,-0.487804889679,2.43902444839,-0.304878056049,1.0,0.0,0.0,0.0,1.0,0.0,0.0,0.0,1.0,-0.61770402832,0.0239420166016,10.2423947021,1.0,0.0,0.0,0.0,1.0,0.0,0.0,0.0,1.0
1491899983521312229,742,1491899983520089104,,7.81622028351,-0.950555503368,90.0,0.00109499995597,1.0,0.0,0.0,0.0,1.0,0.0,0.0,0.0,1.0,-0.609756112099,2.01219511032,-0.426829278469,1.0,0.0,0.0,0.0,1.0,0.0,0.0,0.0,1.0,-0.598550451572,-0.00478840332031,10.2376062988,1.0,0.0,0.0,0.0,1.0,0.0,0.0,0.0,1.0
1491899983542724576,743,1491899983541327909,,7.81571865082,-0.951650440693,90.0,0.00109799997881,1.0,0.0,0.0,0.0,1.0,0.0,0.0,0.0,1.0,-0.487804889679,2.01219511032,-0.243902444839,1.0,0.0,0.0,0.0,1.0,0.0,0.0,0.0,1.0,-0.521935925381,0.0,10.2950671387,1.0,0.0,0.0,0.0,1.0,0.0,0.0,0.0,1.0
1491899983563759422,744,1491899983562265672,,7.81529903412,-0.952899336815,90.0,0.00104999996256,1.0,0.0,0.0,0.0,1.0,0.0,0.0,0.0,1.0,-0.670731723309,2.13414645195,-0.365853667259,1.0,0.0,0.0,0.0,1.0,0.0,0.0,0.0,1.0,-0.440533105469,-0.0526724365234,10.4291424316,1.0,0.0,0.0,0.0,1.0,0.0,0.0,0.0,1.0
1491899983584906873,745,1491899983583648957,,7.81715106964,-0.954611897469,90.0,0.000990999978967,1.0,0.0,0.0,0.0,1.0,0.0,0.0,0.0,1.0,-0.365853667259,2.5,-0.609756112099,1.0,0.0,0.0,0.0,1.0,0.0,0.0,0.0,1.0,-0.45489831543,-0.0143652099609,10.3333743652,1.0,0.0,0.0,0.0,1.0,0.0,0.0,0.0,1.0
1491899983606252970,746,1491899983604522189,,7.81655788422,-0.955733239651,90.0,0.0014309999533,1.0,0.0,0.0,0.0,1.0,0.0,0.0,0.0,1.0,-0.548780500889,2.62195134163,-0.548780500889,1.0,0.0,0.0,0.0,1.0,0.0,0.0,0.0,1.0,-0.45968671875,-0.00478840332031,10.3237975586,1.0,0.0,0.0,0.0,1.0,0.0,0.0,0.0,1.0
1491899983628686567,747,1491899983625581567,,7.81704235077,-0.95484161377,90.0,0.00135100004263,1.0,0.0,0.0,0.0,1.0,0.0,0.0,0.0,1.0,-0.670731723309,2.31707310677,-0.365853667259,1.0,0.0,0.0,0.0,1.0,0.0,0.0,0.0,1.0,-0.588973571866,0.0,10.2088758789,1.0,0.0,0.0,0.0,1.0,0.0,0.0,0.0,1.0
1491899983649804800,748,1491899983646645268,,7.81900453568,-0.953268110752,90.0,0.00148300000001,1.0,0.0,0.0,0.0,1.0,0.0,0.0,0.0,1.0,-0.304878056049,2.37804889679,-0.365853667259,1.0,0.0,0.0,0.0,1.0,0.0,0.0,0.0,1.0,-0.660799658203,0.0957680664062,10.1274730225,1.0,0.0,0.0,0.0,1.0,0.0,0.0,0.0,1.0
1491899983671017407,749,1491899983667377771,,7.81956577301,-0.951688587666,90.0,0.00101600005291,1.0,0.0,0.0,0.0,1.0,0.0,0.0,0.0,1.0,-0.365853667259,2.56097555161,-0.243902444839,1.0,0.0,0.0,0.0,1.0,0.0,0.0,0.0,1.0,-0.636857641602,0.0287304199219,10.2807019287,1.0,0.0,0.0,0.0,1.0,0.0,0.0,0.0,1.0
1491899983691790847,750,1491899983688286524,,7.82071876526,-0.949527800083,90.0,0.0010229999898,1.0,0.0,0.0,0.0,1.0,0.0,0.0,0.0,1.0,-0.365853667259,2.25609779358,-0.12195122242,1.0,0.0,0.0,0.0,1.0,0.0,0.0,0.0,1.0,-0.723048901367,0.0335188255255,10.2711251221,1.0,0.0,0.0,0.0,1.0,0.0,0.0,0.0,1.0
1491899983712257309,751,1491899983708920016,,7.8221578598,-0.948212504387,90.0,0.00101699994411,1.0,0.0,0.0,0.0,1.0,0.0,0.0,0.0,1.0,-0.548780500889,2.31707310677,-0.18292683363,1.0,0.0,0.0,0.0,1.0,0.0,0.0,0.0,1.0,-0.703895288086,0.0861912597656,10.2807019287,1.0,0.0,0.0,0.0,1.0,0.0,0.0,0.0,1.0
1491899983733690072,752,1491899983730214186,,7.8250336647,-0.946702063084,90.0,0.00101999996696,1.0,0.0,0.0,0.0,1.0,0.0,0.0,0.0,1.0,-0.792682945728,2.25609779358,-0.426829278469,1.0,0.0,0.0,0.0,1.0,0.0,0.0,0.0,1.0,-0.555454785156,0.0143652099609,10.3333743652,1.0,0.0,0.0,0.0,1.0,0.0,0.0,0.0,1.0
1491899983757906846,753,1491899983751624033,,7.82543802261,-0.945423841476,90.0,0.00103299994953,1.0,0.0,0.0,0.0,1.0,0.0,0.0,0.0,1.0,-0.548780500889,2.13414645195,-0.304878056049,1.0,0.0,0.0,0.0,1.0,0.0,0.0,0.0,1.0,-0.569819995117,0.0574608398438,10.2088758789,1.0,0.0,0.0,0.0,1.0,0.0,0.0,0.0,1.0
1491899983775066589,754,1491899983772692213,,7.82578611374,-0.943862974644,90.0,0.00105399999302,1.0,0.0,0.0,0.0,1.0,0.0,0.0,0.0,1.0,-0.487804889679,2.19512200356,-0.304878056049,1.0,0.0,0.0,0.0,1.0,0.0,0.0,0.0,1.0,-0.565031591797,0.114921679688,10.2184526855,1.0,0.0,0.0,0.0,1.0,0.0,0.0,0.0,1.0
1491899983799090082,755,1491899983793698779,,7.82317638397,-0.942489564419,90.0,0.0010229999898,1.0,0.0,0.0,0.0,1.0,0.0,0.0,0.0,1.0,-0.365853667259,2.13414645195,-0.12195122242,1.0,0.0,0.0,0.0,1.0,0.0,0.0,0.0,1.0,-0.541089611728,0.0383072265625,10.3812583984,1.0,0.0,0.0,0.0,1.0,0.0,0.0,0.0,1.0
1491899983818299407,756,1491899983814966907,,7.82518291473,-0.94306409359,90.0,0.00118599995039,1.0,0.0,0.0,0.0,1.0,0.0,0.0,0.0,1.0,-0.609756112099,2.62195134163,-0.18292683363,1.0,0.0,0.0,0.0,1.0,0.0,0.0,0.0,1.0,-0.636857641602,-0.0478840332031,10.3094323486,1.0,0.0,0.0,0.0,1.0,0.0,0.0,0.0,1.0
1491899983842582171,757,1491899983835503837,,7.82330417633,-0.94217312336,90.0,0.00106799998321,1.0,0.0,0.0,0.0,1.0,0.0,0.0,0.0,1.0,-0.731707334518,2.5,-0.304878056049,1.0,0.0,0.0,0.0,1.0,0.0,0.0,0.0,1.0,-0.60812722168,0.0909796630859,10.2471831055,1.0,0.0,0.0,0.0,1.0,0.0,0.0,0.0,1.0
1491899983859177382,758,1491899983856834673,,7.82308006287,-0.944113492966,90.0,0.00110500003211,1.0,0.0,0.0,0.0,1.0,0.0,0.0,0.0,1.0,-0.304878056049,2.31707310677,-0.243902444839,1.0,0.0,0.0,0.0,1.0,0.0,0.0,0.0,1.0,-0.660799658203,0.0143652099609,10.1178962158,1.0,0.0,0.0,0.0,1.0,0.0,0.0,0.0,1.0
1491899983879478166,759,1491899983877720510,,7.82351112366,-0.945489943027,90.0,0.00108700001147,1.0,0.0,0.0,0.0,1.0,0.0,0.0,0.0,1.0,-0.304878056049,2.31707310677,-0.304878056049,1.0,0.0,0.0,0.0,1.0,0.0,0.0,0.0,1.0,-0.718260498047,-0.0909796630859,10.2376062988,1.0,0.0,0.0,0.0,1.0,0.0,0.0,0.0,1.0
1491899983901735878,760,1491899983899104263,,7.82623243332,-0.945125460625,90.0,0.00111499999184,1.0,0.0,0.0,0.0,1.0,0.0,0.0,0.0,1.0,-0.487804889679,2.37804889679,-0.243902444839,1.0,0.0,0.0,0.0,1.0,0.0,0.0,0.0,1.0,-0.679953271484,-0.00478840332031,10.2567599121,1.0,0.0,0.0,0.0,1.0,0.0,0.0,0.0,1.0
1491899983924635985,761,1491899983920254683,,7.82666254044,-0.944376349449,90.0,0.00108700001147,1.0,0.0,0.0,0.0,1.0,0.0,0.0,0.0,1.0,-0.487804889679,2.25609779358,-0.487804889679,1.0,0.0,0.0,0.0,1.0,0.0,0.0,0.0,1.0,-0.526724328702,-0.076614453125,10.314220752,1.0,0.0,0.0,0.0,1.0,0.0,0.0,0.0,1.0
1491899983943033436,762,1491899983940837706,,7.82736682892,-0.943312168121,90.0,0.00103499996476,1.0,0.0,0.0,0.0,1.0,0.0,0.0,0.0,1.0,-0.487804889679,2.31707310677,-0.0609756112099,1.0,0.0,0.0,0.0,1.0,0.0,0.0,0.0,1.0,-0.536301208408,-0.0574608398438,10.2328178955,1.0,0.0,0.0,0.0,1.0,0.0,0.0,0.0,1.0
1491899983965115002,763,1491899983962037137,,7.8299074173,-0.943955123425,90.0,0.00106299994513,1.0,0.0,0.0,0.0,1.0,0.0,0.0,0.0,1.0,-0.304878056049,2.25609779358,-0.304878056049,1.0,0.0,0.0,0.0,1.0,0.0,0.0,0.0,1.0,-0.45489831543,-0.0383072265625,10.1897222656,1.0,0.0,0.0,0.0,1.0,0.0,0.0,0.0,1.0
1491899983985378234,764,1491899983983049796,,7.82955026627,-0.942039012909,90.0,0.00105099997018,1.0,0.0,0.0,0.0,1.0,0.0,0.0,0.0,1.0,-0.304878056049,2.25609779358,-0.731707334518,1.0,0.0,0.0,0.0,1.0,0.0,0.0,0.0,1.0,-0.411802685547,0.148440512063,10.3764699951,1.0,0.0,0.0,0.0,1.0,0.0,0.0,0.0,1.0
1491899984006507768,765,1491899984004184487,,7.82859992981,-0.943831920624,90.0,0.00122400000691,1.0,0.0,0.0,0.0,1.0,0.0,0.0,0.0,1.0,-0.487804889679,2.43902444839,-0.487804889679,1.0,0.0,0.0,0.0,1.0,0.0,0.0,0.0,1.0,-0.560243188477,0.0287304199219,10.2711251221,1.0,0.0,0.0,0.0,1.0,0.0,0.0,0.0,1.0
1491899984027480115,766,1491899984025155062,,7.82856607437,-0.942719936371,90.0,0.00107300002128,1.0,0.0,0.0,0.0,1.0,0.0,0.0,0.0,1.0,-0.487804889679,2.5,-0.12195122242,1.0,0.0,0.0,0.0,1.0,0.0,0.0,0.0,1.0,-0.588973571866,0.0239420166016,10.1418382324,1.0,0.0,0.0,0.0,1.0,0.0,0.0,0.0,1.0
1491899984048101576,767,1491899984045943555,,7.8285074234,-0.941869914532,90.0,0.000995000009425,1.0,0.0,0.0,0.0,1.0,0.0,0.0,0.0,1.0,-0.365853667259,2.43902444839,-0.365853667259,1.0,0.0,0.0,0.0,1.0,0.0,0.0,0.0,1.0,-0.679953271484,-0.0191536132812,10.1609918457,1.0,0.0,0.0,0.0,1.0,0.0,0.0,0.0,1.0
1491899984069681006,768,1491899984066746944,,7.82905244827,-0.942952275276,90.0,0.000987999956124,1.0,0.0,0.0,0.0,1.0,0.0,0.0,0.0,1.0,-0.548780500889,2.5,-0.365853667259,1.0,0.0,0.0,0.0,1.0,0.0,0.0,0.0,1.0,-0.694318481445,0.00478840332031,10.2376062988,1.0,0.0,0.0,0.0,1.0,0.0,0.0,0.0,1.0
1491899984089442832,769,1491899984087329134,,7.82827997208,-0.944588661194,90.0,0.00101400003769,1.0,0.0,0.0,0.0,1.0,0.0,0.0,0.0,1.0,-0.731707334518,2.37804889679,-0.18292683363,1.0,0.0,0.0,0.0,1.0,0.0,0.0,0.0,1.0,-0.555454785156,-0.0239420166016,10.3908352051,1.0,0.0,0.0,0.0,1.0,0.0,0.0,0.0,1.0
1491899984110380335,770,1491899984108382679,,7.82952308655,-0.94286108017,90.0,0.00105900003109,1.0,0.0,0.0,0.0,1.0,0.0,0.0,0.0,1.0,-0.548780500889,2.31707310677,-0.304878056049,1.0,0.0,0.0,0.0,1.0,0.0,0.0,0.0,1.0,-0.732625708008,0.0143652099609,10.2950671387,1.0,0.0,0.0,0.0,1.0,0.0,0.0,0.0,1.0
1491899984134257474,771,1491899984129520494,,7.82899475098,-0.943710625172,90.0,0.00101400003769,1.0,0.0,0.0,0.0,1.0,0.0,0.0,0.0,1.0,-0.365853667259,2.19512200356,-0.243902444839,1.0,0.0,0.0,0.0,1.0,0.0,0.0,0.0,1.0,-0.632069238281,-0.0239420166016,10.2328178955,1.0,0.0,0.0,0.0,1.0,0.0,0.0,0.0,1.0
1491899984154410550,772,1491899984150444820,,7.83364391327,-0.945082902908,90.0,0.00117800000589,1.0,0.0,0.0,0.0,1.0,0.0,0.0,0.0,1.0,-0.365853667259,2.19512200356,-0.365853667259,1.0,0.0,0.0,0.0,1.0,0.0,0.0,0.0,1.0,-0.579396801758,0.0143652099609,10.4818148682,1.0,0.0,0.0,0.0,1.0,0.0,0.0,0.0,1.0
1491899984174341386,773,1491899984171456698,,7.83290958405,-0.94606512785,90.0,0.0010529999854,1.0,0.0,0.0,0.0,1.0,0.0,0.0,0.0,1.0,-0.426829278469,2.01219511032,-0.426829278469,1.0,0.0,0.0,0.0,1.0,0.0,0.0,0.0,1.0,-0.61770402832,0.0287304199219,10.2328178955,1.0,0.0,0.0,0.0,1.0,0.0,0.0,0.0,1.0
1491899984199320765,774,1491899984192791233,,7.83431816101,-0.947299838066,90.0,0.00101699994411,1.0,0.0,0.0,0.0,1.0,0.0,0.0,0.0,1.0,-0.487804889679,2.25609779358,-0.426829278469,1.0,0.0,0.0,0.0,1.0,0.0,0.0,0.0,1.0,-0.478840332031,0.0957680664062,10.1945106689,1.0,0.0,0.0,0.0,1.0,0.0,0.0,0.0,1.0
1491899984220717851,775,1491899984213416704,,7.83193778992,-0.948473393917,90.0,0.00104999996256,1.0,0.0,0.0,0.0,1.0,0.0,0.0,0.0,1.0,-0.487804889679,1.95121955872,-0.243902444839,1.0,0.0,0.0,0.0,1.0,0.0,0.0,0.0,1.0,-0.517147558594,0.0383072265625,10.4004120117,1.0,0.0,0.0,0.0,1.0,0.0,0.0,0.0,1.0
1491899984237695198,776,1491899984233841760,,7.83022785187,-0.947147250175,90.0,0.00109300005715,1.0,0.0,0.0,0.0,1.0,0.0,0.0,0.0,1.0,-0.365853667259,2.07317066193,-0.426829278469,1.0,0.0,0.0,0.0,1.0,0.0,0.0,0.0,1.0,-0.569819995117,-0.0574608398438,10.4482960449,1.0,0.0,0.0,0.0,1.0,0.0,0.0,0.0,1.0
1491899984260335513,777,1491899984254515200,,7.82916784286,-0.948186099529,90.0,0.00135899998713,1.0,0.0,0.0,0.0,1.0,0.0,0.0,0.0,1.0,-0.609756112099,2.37804889679,-0.243902444839,1.0,0.0,0.0,0.0,1.0,0.0,0.0,0.0,1.0,-0.584185168546,0.00957680664062,10.2471831055,1.0,0.0,0.0,0.0,1.0,0.0,0.0,0.0,1.0
1491899984277915724,778,1491899984275822651,,7.82772350311,-0.947082698345,90.0,0.00108299998101,1.0,0.0,0.0,0.0,1.0,0.0,0.0,0.0,1.0,-0.304878056049,2.5,-0.243902444839,1.0,0.0,0.0,0.0,1.0,0.0,0.0,0.0,1.0,-0.603338854892,-0.0478840332031,10.2088758789,1.0,0.0,0.0,0.0,1.0,0.0,0.0,0.0,1.0
1491899984298368748,779,1491899984297114425,,7.8276553154,-0.948345959187,90.0,0.00105900003109,1.0,0.0,0.0,0.0,1.0,0.0,0.0,0.0,1.0,-0.609756112099,2.5,-0.18292683363,1.0,0.0,0.0,0.0,1.0,0.0,0.0,0.0,1.0,-0.699106884766,0.0191536132812,10.0556469727,1.0,0.0,0.0,0.0,1.0,0.0,0.0,0.0,1.0
1491899984321957293,780,1491899984318570157,,7.8268289566,-0.947774529457,90.0,0.00114299997222,1.0,0.0,0.0,0.0,1.0,0.0,0.0,0.0,1.0,-0.426829278469,2.43902444839,-0.304878056049,1.0,0.0,0.0,0.0,1.0,0.0,0.0,0.0,1.0,-0.588973571866,0.0478840332031,10.2232410889,1.0,0.0,0.0,0.0,1.0,0.0,0.0,0.0,1.0
1491899984342076984,781,1491899984339317244,,7.82542228699,-0.948787152767,90.0,0.00122500001453,1.0,0.0,0.0,0.0,1.0,0.0,0.0,0.0,1.0,-0.548780500889,2.13414645195,-0.365853667259,1.0,0.0,0.0,0.0,1.0,0.0,0.0,0.0,1.0,-0.574608398438,-0.00478840332031,10.2567599121,1.0,0.0,0.0,0.0,1.0,0.0,0.0,0.0,1.0
1491899984362740789,782,1491899984359763757,,7.82467603683,-0.949000060558,90.0,0.00148500001524,1.0,0.0,0.0,0.0,1.0,0.0,0.0,0.0,1.0,-0.487804889679,2.01219511032,-0.243902444839,1.0,0.0,0.0,0.0,1.0,0.0,0.0,0.0,1.0,-0.497993945312,-0.0335188255255,10.3237975586,1.0,0.0,0.0,0.0,1.0,0.0,0.0,0.0,1.0
1491899984384394281,783,1491899984380913343,,7.82291793823,-0.947508752346,90.0,0.00114599999506,1.0,0.0,0.0,0.0,1.0,0.0,0.0,0.0,1.0,-0.365853667259,2.13414645195,-0.18292683363,1.0,0.0,0.0,0.0,1.0,0.0,0.0,0.0,1.0,-0.603338854892,0.0191536132812,10.299855542,1.0,0.0,0.0,0.0,1.0,0.0,0.0,0.0,1.0
1491899984405295847,784,1491899984402640482,,7.82258176804,-0.944970488548,90.0,0.00126000004821,1.0,0.0,0.0,0.0,1.0,0.0,0.0,0.0,1.0,-0.548780500889,2.31707310677,-0.304878056049,1.0,0.0,0.0,0.0,1.0,0.0,0.0,0.0,1.0,-0.474051928711,0.0957680664062,10.2567599121,1.0,0.0,0.0,0.0,1.0,0.0,0.0,0.0,1.0
1491899984426972465,785,1491899984423699183,,7.82058763504,-0.945494234562,90.0,0.00123699998949,1.0,0.0,0.0,0.0,1.0,0.0,0.0,0.0,1.0,-0.487804889679,2.25609779358,-0.426829278469,1.0,0.0,0.0,0.0,1.0,0.0,0.0,0.0,1.0,-0.445321508789,0.0622492431641,10.314220752,1.0,0.0,0.0,0.0,1.0,0.0,0.0,0.0,1.0
1491899984447016114,786,1491899984444175592,,7.81877803802,-0.943235337734,90.0,0.00133200001437,1.0,0.0,0.0,0.0,1.0,0.0,0.0,0.0,1.0,-0.18292683363,2.13414645195,-0.609756112099,1.0,0.0,0.0,0.0,1.0,0.0,0.0,0.0,1.0,-0.45968671875,-0.067037651051,10.314220752,1.0,0.0,0.0,0.0,1.0,0.0,0.0,0.0,1.0
1491899984468255492,787,1491899984465401741,,7.81910467148,-0.94601047039,90.0,0.00154500000644,1.0,0.0,0.0,0.0,1.0,0.0,0.0,0.0,1.0,-0.426829278469,2.5,-0.365853667259,1.0,0.0,0.0,0.0,1.0,0.0,0.0,0.0,1.0,-0.555454785156,-0.067037651051,10.1418382324,1.0,0.0,0.0,0.0,1.0,0.0,0.0,0.0,1.0
1491899984488534870,788,1491899984485815650,,7.81675291061,-0.944745838642,90.0,0.00119900004938,1.0,0.0,0.0,0.0,1.0,0.0,0.0,0.0,1.0,-0.792682945728,2.62195134163,-0.304878056049,1.0,0.0,0.0,0.0,1.0,0.0,0.0,0.0,1.0,-0.588973571866,0.0383072265625,10.2088758789,1.0,0.0,0.0,0.0,1.0,0.0,0.0,0.0,1.0
1491899984509052477,789,1491899984506334143,,7.81215429306,-0.942092478275,90.0,0.00144200003706,1.0,0.0,0.0,0.0,1.0,0.0,0.0,0.0,1.0,-0.609756112099,2.31707310677,-0.365853667259,1.0,0.0,0.0,0.0,1.0,0.0,0.0,0.0,1.0,-0.679953271484,0.0430956298828,10.2567599121,1.0,0.0,0.0,0.0,1.0,0.0,0.0,0.0,1.0
1491899984529383678,790,1491899984526814979,,7.80818414688,-0.942436695099,90.0,0.00150300003588,1.0,0.0,0.0,0.0,1.0,0.0,0.0,0.0,1.0,-0.548780500889,2.13414645195,-0.365853667259,1.0,0.0,0.0,0.0,1.0,0.0,0.0,0.0,1.0,-0.699106884766,0.076614453125,10.2471831055,1.0,0.0,0.0,0.0,1.0,0.0,0.0,0.0,1.0
1491899984550948681,791,1491899984548082587,,7.80432701111,-0.943479001522,90.0,0.00101899995934,1.0,0.0,0.0,0.0,1.0,0.0,0.0,0.0,1.0,-0.609756112099,2.19512200356,-0.12195122242,1.0,0.0,0.0,0.0,1.0,0.0,0.0,0.0,1.0,-0.632069238281,-0.0574608398438,10.3812583984,1.0,0.0,0.0,0.0,1.0,0.0,0.0,0.0,1.0
1491899984571270975,792,1491899984568687329,,7.80054283142,-0.944274604321,90.0,0.00107999995816,1.0,0.0,0.0,0.0,1.0,0.0,0.0,0.0,1.0,-0.365853667259,2.25609779358,-0.243902444839,1.0,0.0,0.0,0.0,1.0,0.0,0.0,0.0,1.0,-0.703895288086,0.0718260498047,10.0700121826,1.0,0.0,0.0,0.0,1.0,0.0,0.0,0.0,1.0
1491899984592379416,793,1491899984590728843,,7.80147886276,-0.942766010761,90.0,0.00100599997677,1.0,0.0,0.0,0.0,1.0,0.0,0.0,0.0,1.0,-0.487804889679,2.13414645195,-0.243902444839,1.0,0.0,0.0,0.0,1.0,0.0,0.0,0.0,1.0,-0.584185168546,-0.00478840332031,10.3237975586,1.0,0.0,0.0,0.0,1.0,0.0,0.0,0.0,1.0
1491899984614129315,794,1491899984610777804,,7.80263280869,-0.944673895836,90.0,0.00100699998438,1.0,0.0,0.0,0.0,1.0,0.0,0.0,0.0,1.0,-0.304878056049,2.19512200356,-0.426829278469,1.0,0.0,0.0,0.0,1.0,0.0,0.0,0.0,1.0,-0.660799658203,0.0287304199219,10.3190091553,1.0,0.0,0.0,0.0,1.0,0.0,0.0,0.0,1.0
1491899984635281193,795,1491899984632208380,,7.80758333206,-0.946163952351,90.0,0.00100699998438,1.0,0.0,0.0,0.0,1.0,0.0,0.0,0.0,1.0,-0.18292683363,2.31707310677,-0.365853667259,1.0,0.0,0.0,0.0,1.0,0.0,0.0,0.0,1.0,-0.411802685547,0.0574608398438,10.1705686523,1.0,0.0,0.0,0.0,1.0,0.0,0.0,0.0,1.0
1491899984658391405,796,1491899984653619269,,7.80776453018,-0.944330692291,90.0,0.00107500003651,1.0,0.0,0.0,0.0,1.0,0.0,0.0,0.0,1.0,-0.426829278469,2.13414645195,-0.243902444839,1.0,0.0,0.0,0.0,1.0,0.0,0.0,0.0,1.0,-0.574608398438,-0.0335188255255,10.3956236084,1.0,0.0,0.0,0.0,1.0,0.0,0.0,0.0,1.0
1491899984679573543,797,1491899984674335313,,7.80940341949,-0.945824146271,90.0,0.00109300005715,1.0,0.0,0.0,0.0,1.0,0.0,0.0,0.0,1.0,-0.548780500889,2.5,-0.365853667259,1.0,0.0,0.0,0.0,1.0,0.0,0.0,0.0,1.0,-0.517147558594,0.0239420166016,10.314220752,1.0,0.0,0.0,0.0,1.0,0.0,0.0,0.0,1.0
1491899984702887505,798,1491899984696059327,,7.81029224396,-0.945851624012,90.0,0.00120499997865,1.0,0.0,0.0,0.0,1.0,0.0,0.0,0.0,1.0,-0.487804889679,2.56097555161,-0.12195122242,1.0,0.0,0.0,0.0,1.0,0.0,0.0,0.0,1.0,-0.565031591797,-0.0430956298828,10.2136642822,1.0,0.0,0.0,0.0,1.0,0.0,0.0,0.0,1.0
1491899984722391414,799,1491899984716519694,,7.80953216553,-0.945688307285,90.0,0.00129499996547,1.0,0.0,0.0,0.0,1.0,0.0,0.0,0.0,1.0,-0.487804889679,2.43902444839,-0.243902444839,1.0,0.0,0.0,0.0,1.0,0.0,0.0,0.0,1.0,-0.579396801758,-0.0622492431641,10.165780249,1.0,0.0,0.0,0.0,1.0,0.0,0.0,0.0,1.0
1491899984743107823,800,1491899984737870895,,7.80610132217,-0.946424543858,90.0,0.00105800002348,1.0,0.0,0.0,0.0,1.0,0.0,0.0,0.0,1.0,-0.548780500889,2.01219511032,-0.243902444839,1.0,0.0,0.0,0.0,1.0,0.0,0.0,0.0,1.0,-0.684741674805,-0.0335188255255,10.0748005859,1.0,0.0,0.0,0.0,1.0,0.0,0.0,0.0,1.0
1491899984761862930,801,1491899984759057774,,7.80218553543,-0.947296917439,90.0,0.00233200006187,1.0,0.0,0.0,0.0,1.0,0.0,0.0,0.0,1.0,-0.487804889679,2.07317066193,-0.12195122242,1.0,0.0,0.0,0.0,1.0,0.0,0.0,0.0,1.0,-0.565031591797,-0.0335188255255,10.2328178955,1.0,0.0,0.0,0.0,1.0,0.0,0.0,0.0,1.0
1491899984785203507,802,1491899984780813923,,7.79954433441,-0.945382893085,90.0,0.00117800000589,1.0,0.0,0.0,0.0,1.0,0.0,0.0,0.0,1.0,-0.548780500889,2.19512200356,-0.365853667259,1.0,0.0,0.0,0.0,1.0,0.0,0.0,0.0,1.0,-0.569819995117,-0.0287304199219,10.2136642822,1.0,0.0,0.0,0.0,1.0,0.0,0.0,0.0,1.0
1491899984805638301,803,1491899984801658821,,7.79399728775,-0.94719427824,90.0,0.00194300001021,1.0,0.0,0.0,0.0,1.0,0.0,0.0,0.0,1.0,-0.731707334518,2.07317066193,-0.18292683363,1.0,0.0,0.0,0.0,1.0,0.0,0.0,0.0,1.0,-0.445321508789,-0.0718260498047,10.2759135254,1.0,0.0,0.0,0.0,1.0,0.0,0.0,0.0,1.0
1491899984825958721,804,1491899984822785022,,7.79552602768,-0.946515977383,90.0,0.00205100001767,1.0,0.0,0.0,0.0,1.0,0.0,0.0,0.0,1.0,-0.792682945728,2.07317066193,-0.426829278469,1.0,0.0,0.0,0.0,1.0,0.0,0.0,0.0,1.0,-0.478840332031,0.0957680664062,10.2040874756,1.0,0.0,0.0,0.0,1.0,0.0,0.0,0.0,1.0
1491899984850025651,805,1491899984846630390,,7.79732513428,-0.945508480072,90.0,0.00129399995785,1.0,0.0,0.0,0.0,1.0,0.0,0.0,0.0,1.0,-0.670731723309,2.31707310677,-0.243902444839,1.0,0.0,0.0,0.0,1.0,0.0,0.0,0.0,1.0,-0.478840332031,0.00957680664062,10.285490332,1.0,0.0,0.0,0.0,1.0,0.0,0.0,0.0,1.0
1491899984870498363,806,1491899984866977633,,7.79112243652,-0.94192302227,90.0,0.000999000039883,1.0,0.0,0.0,0.0,1.0,0.0,0.0,0.0,1.0,-0.548780500889,2.43902444839,-0.487804889679,1.0,0.0,0.0,0.0,1.0,0.0,0.0,0.0,1.0,-0.507570751953,-0.0526724365234,10.3046439453,1.0,0.0,0.0,0.0,1.0,0.0,0.0,0.0,1.0
1491899984890923574,807,1491899984887872115,,7.78344297409,-0.94300365448,90.0,0.0010529999854,1.0,0.0,0.0,0.0,1.0,0.0,0.0,0.0,1.0,-0.487804889679,2.62195134163,-0.243902444839,1.0,0.0,0.0,0.0,1.0,0.0,0.0,0.0,1.0,-0.565031591797,0.0335188255255,10.1131078125,1.0,0.0,0.0,0.0,1.0,0.0,0.0,0.0,1.0
1491899984911081754,808,1491899984908830972,,7.77483940125,-0.94542914629,90.0,0.00100399996154,1.0,0.0,0.0,0.0,1.0,0.0,0.0,0.0,1.0,-0.365853667259,2.19512200356,-0.243902444839,1.0,0.0,0.0,0.0,1.0,0.0,0.0,0.0,1.0,-0.632069238281,0.0909796630859,10.1226846191,1.0,0.0,0.0,0.0,1.0,0.0,0.0,0.0,1.0
1491899984930859621,809,1491899984927566236,,7.76510763168,-0.940379440784,90.0,0.00102700002026,1.0,0.0,0.0,0.0,1.0,0.0,0.0,0.0,1.0,-0.426829278469,2.37804889679,-0.304878056049,1.0,0.0,0.0,0.0,1.0,0.0,0.0,0.0,1.0,-0.627280834961,-0.0574608398438,10.3285859619,1.0,0.0,0.0,0.0,1.0,0.0,0.0,0.0,1.0
1491899984951074364,810,1491899984948258322,,7.76287603378,-0.942202329636,90.0,0.000966000021435,1.0,0.0,0.0,0.0,1.0,0.0,0.0,0.0,1.0,-0.426829278469,2.56097555161,-0.0609756112099,1.0,0.0,0.0,0.0,1.0,0.0,0.0,0.0,1.0,-0.723048901367,-0.0287304199219,10.2759135254,1.0,0.0,0.0,0.0,1.0,0.0,0.0,0.0,1.0
1491899984972435565,811,1491899984969160096,,7.76549196243,-0.943731725216,90.0,0.000969999993686,1.0,0.0,0.0,0.0,1.0,0.0,0.0,0.0,1.0,-0.548780500889,2.31707310677,-0.487804889679,1.0,0.0,0.0,0.0,1.0,0.0,0.0,0.0,1.0,-0.684741674805,0.0957680664062,10.1753570557,1.0,0.0,0.0,0.0,1.0,0.0,0.0,0.0,1.0
1491899984992981922,812,1491899984990054422,,7.77182197571,-0.94388127327,90.0,0.00096700002905,1.0,0.0,0.0,0.0,1.0,0.0,0.0,0.0,1.0,-0.365853667259,2.74390244484,-0.670731723309,1.0,0.0,0.0,0.0,1.0,0.0,0.0,0.0,1.0,-0.526724328702,-0.0622492431641,10.1370498291,1.0,0.0,0.0,0.0,1.0,0.0,0.0,0.0,1.0
1491899985013771196,813,1491899985011202550,,7.78671979904,-0.943868875504,90.0,0.000969999993686,1.0,0.0,0.0,0.0,1.0,0.0,0.0,0.0,1.0,-0.365853667259,2.43902444839,-0.365853667259,1.0,0.0,0.0,0.0,1.0,0.0,0.0,0.0,1.0,-0.541089611728,-0.0526724365234,10.2376062988,1.0,0.0,0.0,0.0,1.0,0.0,0.0,0.0,1.0
1491899985035254168,814,1491899985032156667,,7.79905462265,-0.94423443079,90.0,0.000975999981165,1.0,0.0,0.0,0.0,1.0,0.0,0.0,0.0,1.0,-0.670731723309,2.19512200356,-0.304878056049,1.0,0.0,0.0,0.0,1.0,0.0,0.0,0.0,1.0,-0.60812722168,0.110133276367,10.1945106689,1.0,0.0,0.0,0.0,1.0,0.0,0.0,0.0,1.0
1491899985054996671,815,1491899985053233233,,7.80787658691,-0.944546818733,90.0,0.000992999994196,1.0,0.0,0.0,0.0,1.0,0.0,0.0,0.0,1.0,-0.609756112099,2.01219511032,-0.365853667259,1.0,0.0,0.0,0.0,1.0,0.0,0.0,0.0,1.0,-0.555454785156,0.0478840332031,10.3237975586,1.0,0.0,0.0,0.0,1.0,0.0,0.0,0.0,1.0
