%time,field.header.seq,field.header.stamp,field.header.frame_id,field.orientation.x,field.orientation.y,field.orientation.z,field.orientation.w,field.orientation_covariance0,field.orientation_covariance1,field.orientation_covariance2,field.orientation_covariance3,field.orientation_covariance4,field.orientation_covariance5,field.orientation_covariance6,field.orientation_covariance7,field.orientation_covariance8,field.angular_velocity.x,field.angular_velocity.y,field.angular_velocity.z,field.angular_velocity_covariance0,field.angular_velocity_covariance1,field.angular_velocity_covariance2,field.angular_velocity_covariance3,field.angular_velocity_covariance4,field.angular_velocity_covariance5,field.angular_velocity_covariance6,field.angular_velocity_covariance7,field.angular_velocity_covariance8,field.linear_acceleration.x,field.linear_acceleration.y,field.linear_acceleration.z,field.linear_acceleration_covariance0,field.linear_acceleration_covariance1,field.linear_acceleration_covariance2,field.linear_acceleration_covariance3,field.linear_acceleration_covariance4,field.linear_acceleration_covariance5,field.linear_acceleration_covariance6,field.linear_acceleration_covariance7,field.linear_acceleration_covariance8
1491900165995140727,405,1491900165690818339,,8.01751422882,-1.09365832806,90.0,0.00226700003259,1.0,0.0,0.0,0.0,1.0,0.0,0.0,0.0,1.0,-0.426829278469,2.43902444839,-0.426829278469,1.0,0.0,0.0,0.0,1.0,0.0,0.0,0.0,1.0,-0.550666381836,-0.0191536132812,10.3333743652,1.0,0.0,0.0,0.0,1.0,0.0,0.0,0.0,1.0
1491900165995216977,406,1491900165711029487,,8.01089286804,-1.09024584293,90.0,0.00686800014228,1.0,0.0,0.0,0.0,1.0,0.0,0.0,0.0,1.0,-0.304878056049,2.25609779358,-0.548780500889,1.0,0.0,0.0,0.0,1.0,0.0,0.0,0.0,1.0,-0.488417138672,0.0335188255255,10.2759135254,1.0,0.0,0.0,0.0,1.0,0.0,0.0,0.0,1.0
1491900165995289737,407,1491900165732711001,,8.00761795044,-1.0852189064,90.0,0.00139400002081,1.0,0.0,0.0,0.0,1.0,0.0,0.0,0.0,1.0,-0.487804889679,2.37804889679,-0.365853667259,1.0,0.0,0.0,0.0,1.0,0.0,0.0,0.0,1.0,-0.560243188477,0.0,10.2902787354,1.0,0.0,0.0,0.0,1.0,0.0,0.0,0.0,1.0
1491900165995364841,408,1491900165753986108,,8.00424003601,-1.08007669449,90.0,0.00152900000103,1.0,0.0,0.0,0.0,1.0,0.0,0.0,0.0,1.0,-0.548780500889,2.5,-0.426829278469,1.0,0.0,0.0,0.0,1.0,0.0,0.0,0.0,1.0,-0.565031591797,-0.119710083008,10.1609918457,1.0,0.0,0.0,0.0,1.0,0.0,0.0,0.0,1.0
1491900165995518435,409,1491900165775057934,,8.00326347351,-1.07547259331,90.0,0.00167699996382,1.0,0.0,0.0,0.0,1.0,0.0,0.0,0.0,1.0,-0.548780500889,2.43902444839,-0.365853667259,1.0,0.0,0.0,0.0,1.0,0.0,0.0,0.0,1.0,-0.723048901367,0.119710083008,10.046070166,1.0,0.0,0.0,0.0,1.0,0.0,0.0,0.0,1.0
1491900165995612602,410,1491900165795842468,,7.99548435211,-1.06835627556,90.0,0.00257600005716,1.0,0.0,0.0,0.0,1.0,0.0,0.0,0.0,1.0,-0.548780500889,2.25609779358,-0.304878056049,1.0,0.0,0.0,0.0,1.0,0.0,0.0,0.0,1.0,-0.632069238281,0.0622492431641,10.285490332,1.0,0.0,0.0,0.0,1.0,0.0,0.0,0.0,1.0
1491900165995780883,411,1491900165817302003,,7.99516105652,-1.06417906284,90.0,0.00125400000252,1.0,0.0,0.0,0.0,1.0,0.0,0.0,0.0,1.0,-0.487804889679,2.43902444839,-0.670731723309,1.0,0.0,0.0,0.0,1.0,0.0,0.0,0.0,1.0,-0.612915625,-0.124498486328,10.4770264648,1.0,0.0,0.0,0.0,1.0,0.0,0.0,0.0,1.0
1491900165995854841,412,1491900165837612579,,7.99426269531,-1.06165897846,90.0,0.00120299996343,1.0,0.0,0.0,0.0,1.0,0.0,0.0,0.0,1.0,-0.609756112099,2.5,-0.18292683363,1.0,0.0,0.0,0.0,1.0,0.0,0.0,0.0,1.0,-0.641646044922,-0.114921679688,9.98860932617,1.0,0.0,0.0,0.0,1.0,0.0,0.0,0.0,1.0
1491900165995918071,413,1491900165858415915,,7.99010181427,-1.06085193157,90.0,0.00113800005056,1.0,0.0,0.0,0.0,1.0,0.0,0.0,0.0,1.0,-0.426829278469,2.37804889679,0.0609756112099,1.0,0.0,0.0,0.0,1.0,0.0,0.0,0.0,1.0,-0.632069238281,0.105344873047,9.97424411621,1.0,0.0,0.0,0.0,1.0,0.0,0.0,0.0,1.0
1491900165995979216,414,1491900165879650189,,7.98903131485,-1.05432963371,90.0,0.00130000000354,1.0,0.0,0.0,0.0,1.0,0.0,0.0,0.0,1.0,-0.365853667259,2.25609779358,-0.304878056049,1.0,0.0,0.0,0.0,1.0,0.0,0.0,0.0,1.0,-0.703895288086,-0.0383072265625,10.4722380615,1.0,0.0,0.0,0.0,1.0,0.0,0.0,0.0,1.0
1491900165996129998,415,1491900165901623682,,7.98534107208,-1.05102467537,90.0,0.00301999994554,1.0,0.0,0.0,0.0,1.0,0.0,0.0,0.0,1.0,-0.426829278469,2.31707310677,-0.487804889679,1.0,0.0,0.0,0.0,1.0,0.0,0.0,0.0,1.0,-0.627280834961,-0.0478840332031,10.3621047852,1.0,0.0,0.0,0.0,1.0,0.0,0.0,0.0,1.0
1491900165996167237,416,1491900165922824102,,7.98363399506,-1.04715442657,90.0,0.00114499998745,1.0,0.0,0.0,0.0,1.0,0.0,0.0,0.0,1.0,-0.487804889679,2.31707310677,-0.18292683363,1.0,0.0,0.0,0.0,1.0,0.0,0.0,0.0,1.0,-0.598550451572,-0.0622492431641,10.2328178955,1.0,0.0,0.0,0.0,1.0,0.0,0.0,0.0,1.0
1491900165996428696,417,1491900165944613896,,7.97852325439,-1.0406498909,90.0,0.00599499978125,1.0,0.0,0.0,0.0,1.0,0.0,0.0,0.0,1.0,-0.304878056049,2.13414645195,-0.426829278469,1.0,0.0,0.0,0.0,1.0,0.0,0.0,0.0,1.0,-0.502782348633,0.0861912597656,10.2136642822,1.0,0.0,0.0,0.0,1.0,0.0,0.0,0.0,1.0
1491900165996507341,418,1491900165965551035,,7.97517776489,-1.03318738937,90.0,0.00315900007263,1.0,0.0,0.0,0.0,1.0,0.0,0.0,0.0,1.0,-0.243902444839,2.13414645195,-0.609756112099,1.0,0.0,0.0,0.0,1.0,0.0,0.0,0.0,1.0,-0.632069238281,0.0622492431641,10.3860468018,1.0,0.0,0.0,0.0,1.0,0.0,0.0,0.0,1.0
1491900165996580935,419,1491900165990979997,,7.97466373444,-1.03163349628,90.0,0.00792699959129,1.0,0.0,0.0,0.0,1.0,0.0,0.0,0.0,1.0,-0.609756112099,2.37804889679,-0.426829278469,1.0,0.0,0.0,0.0,1.0,0.0,0.0,0.0,1.0,-0.603338854892,0.0191536132812,10.1992990723,1.0,0.0,0.0,0.0,1.0,0.0,0.0,0.0,1.0
1491900166013441146,420,1491900166011436719,,7.96971082687,-1.02938961983,90.0,0.00147400004789,1.0,0.0,0.0,0.0,1.0,0.0,0.0,0.0,1.0,-0.426829278469,2.07317066193,-0.365853667259,1.0,0.0,0.0,0.0,1.0,0.0,0.0,0.0,1.0,-0.598550451572,0.100556469727,10.1992990723,1.0,0.0,0.0,0.0,1.0,0.0,0.0,0.0,1.0
1491900166035031618,421,1491900166033158857,,7.97228431702,-1.02415370941,90.0,0.00215599988587,1.0,0.0,0.0,0.0,1.0,0.0,0.0,0.0,1.0,-0.487804889679,2.43902444839,-0.548780500889,1.0,0.0,0.0,0.0,1.0,0.0,0.0,0.0,1.0,-0.560243188477,-0.119710083008,10.3668931885,1.0,0.0,0.0,0.0,1.0,0.0,0.0,0.0,1.0
1491900166057336204,422,1491900166054918496,,7.97492170334,-1.02383673191,90.0,0.00137900002301,1.0,0.0,0.0,0.0,1.0,0.0,0.0,0.0,1.0,-0.426829278469,2.37804889679,-0.243902444839,1.0,0.0,0.0,0.0,1.0,0.0,0.0,0.0,1.0,-0.694318481445,0.196324536133,10.1226846191,1.0,0.0,0.0,0.0,1.0,0.0,0.0,0.0,1.0
1491900166076708603,423,1491900166075368082,,7.97506570816,-1.02109658718,90.0,0.0010000000475,1.0,0.0,0.0,0.0,1.0,0.0,0.0,0.0,1.0,-0.548780500889,2.19512200356,-0.487804889679,1.0,0.0,0.0,0.0,1.0,0.0,0.0,0.0,1.0,-0.718260498047,0.0718260498047,10.3477395752,1.0,0.0,0.0,0.0,1.0,0.0,0.0,0.0,1.0
1491900166097481158,424,1491900166095825533,,7.97752857208,-1.01813411713,90.0,0.00110700004734,1.0,0.0,0.0,0.0,1.0,0.0,0.0,0.0,1.0,-0.426829278469,2.25609779358,-0.426829278469,1.0,0.0,0.0,0.0,1.0,0.0,0.0,0.0,1.0,-0.579396801758,0.0526724365234,10.3573163818,1.0,0.0,0.0,0.0,1.0,0.0,0.0,0.0,1.0
1491900166118198817,425,1491900166116619546,,7.97627782822,-1.01484966278,90.0,0.00103499996476,1.0,0.0,0.0,0.0,1.0,0.0,0.0,0.0,1.0,-0.365853667259,2.13414645195,-0.304878056049,1.0,0.0,0.0,0.0,1.0,0.0,0.0,0.0,1.0,-0.497993945312,-0.0909796630859,10.3285859619,1.0,0.0,0.0,0.0,1.0,0.0,0.0,0.0,1.0
1491900166139009550,426,1491900166137251685,,7.97440004349,-1.01397383213,90.0,0.00114399997983,1.0,0.0,0.0,0.0,1.0,0.0,0.0,0.0,1.0,-0.609756112099,2.56097555161,-0.365853667259,1.0,0.0,0.0,0.0,1.0,0.0,0.0,0.0,1.0,-0.632069238281,-0.110133276367,10.0364933594,1.0,0.0,0.0,0.0,1.0,0.0,0.0,0.0,1.0
1491900166160150490,427,1491900166158528407,,7.97529125214,-1.01203656197,90.0,0.000988999963738,1.0,0.0,0.0,0.0,1.0,0.0,0.0,0.0,1.0,-0.487804889679,2.25609779358,-0.304878056049,1.0,0.0,0.0,0.0,1.0,0.0,0.0,0.0,1.0,-0.612915625,0.067037651051,10.0700121826,1.0,0.0,0.0,0.0,1.0,0.0,0.0,0.0,1.0
1491900166180876535,428,1491900166179029295,,7.97986125946,-1.0062533617,90.0,0.0009710000013,1.0,0.0,0.0,0.0,1.0,0.0,0.0,0.0,1.0,-0.426829278469,2.01219511032,-0.12195122242,1.0,0.0,0.0,0.0,1.0,0.0,0.0,0.0,1.0,-0.675164868164,0.0239420166016,10.419565625,1.0,0.0,0.0,0.0,1.0,0.0,0.0,0.0,1.0
1491900166201512580,429,1491900166199601954,,7.97853183746,-1.0049546957,90.0,0.00101200002246,1.0,0.0,0.0,0.0,1.0,0.0,0.0,0.0,1.0,-0.243902444839,2.13414645195,-0.243902444839,1.0,0.0,0.0,0.0,1.0,0.0,0.0,0.0,1.0,-0.60812722168,0.0909796630859,10.3860468018,1.0,0.0,0.0,0.0,1.0,0.0,0.0,0.0,1.0
1491900166223077479,430,1491900166220859405,,7.97533369064,-1.00264132023,90.0,0.000966000021435,1.0,0.0,0.0,0.0,1.0,0.0,0.0,0.0,1.0,-0.18292683363,2.01219511032,-0.304878056049,1.0,0.0,0.0,0.0,1.0,0.0,0.0,0.0,1.0,-0.565031591797,-0.0143652099609,10.3381627686,1.0,0.0,0.0,0.0,1.0,0.0,0.0,0.0,1.0
1491900166246436388,431,1491900166243856648,,7.97399234772,-0.997543096542,90.0,0.00105199997779,1.0,0.0,0.0,0.0,1.0,0.0,0.0,0.0,1.0,-0.304878056049,2.62195134163,-0.243902444839,1.0,0.0,0.0,0.0,1.0,0.0,0.0,0.0,1.0,-0.622492431641,0.0287304199219,10.2711251221,1.0,0.0,0.0,0.0,1.0,0.0,0.0,0.0,1.0
1491900166266534620,432,1491900166264162485,,7.97327041626,-0.995572566986,90.0,0.00128800002858,1.0,0.0,0.0,0.0,1.0,0.0,0.0,0.0,1.0,-0.365853667259,2.01219511032,-0.304878056049,1.0,0.0,0.0,0.0,1.0,0.0,0.0,0.0,1.0,-0.531512805087,0.0430956298828,10.2567599121,1.0,0.0,0.0,0.0,1.0,0.0,0.0,0.0,1.0
1491900166289406134,433,1491900166286692280,,7.96885681152,-0.994765460491,90.0,0.00363699998707,1.0,0.0,0.0,0.0,1.0,0.0,0.0,0.0,1.0,-0.426829278469,2.31707310677,-0.18292683363,1.0,0.0,0.0,0.0,1.0,0.0,0.0,0.0,1.0,-0.517147558594,-0.0143652099609,10.2184526855,1.0,0.0,0.0,0.0,1.0,0.0,0.0,0.0,1.0
1491900166310986085,434,1491900166307869366,,7.97017669678,-0.990531980991,90.0,0.00104899995495,1.0,0.0,0.0,0.0,1.0,0.0,0.0,0.0,1.0,-0.609756112099,2.68292689323,-0.365853667259,1.0,0.0,0.0,0.0,1.0,0.0,0.0,0.0,1.0,-0.502782348633,0.0,10.2376062988,1.0,0.0,0.0,0.0,1.0,0.0,0.0,0.0,1.0
1491900166335981349,435,1491900166329285202,,7.96836280823,-0.987487256527,90.0,0.00106999999844,1.0,0.0,0.0,0.0,1.0,0.0,0.0,0.0,1.0,-0.487804889679,2.25609779358,-0.304878056049,1.0,0.0,0.0,0.0,1.0,0.0,0.0,0.0,1.0,-0.603338854892,0.0383072265625,10.1705686523,1.0,0.0,0.0,0.0,1.0,0.0,0.0,0.0,1.0
1491900166352032810,436,1491900166350353226,,7.96994352341,-0.988358080387,90.0,0.00105399999302,1.0,0.0,0.0,0.0,1.0,0.0,0.0,0.0,1.0,-0.731707334518,2.43902444839,-0.426829278469,1.0,0.0,0.0,0.0,1.0,0.0,0.0,0.0,1.0,-0.574608398438,-0.119710083008,10.3333743652,1.0,0.0,0.0,0.0,1.0,0.0,0.0,0.0,1.0
1491900166373272240,437,1491900166371601406,,7.96959877014,-0.98306453228,90.0,0.00126699998509,1.0,0.0,0.0,0.0,1.0,0.0,0.0,0.0,1.0,-0.548780500889,2.37804889679,-0.304878056049,1.0,0.0,0.0,0.0,1.0,0.0,0.0,0.0,1.0,-0.526724328702,0.067037651051,10.2423947021,1.0,0.0,0.0,0.0,1.0,0.0,0.0,0.0,1.0
1491900166393777399,438,1491900166392037034,,7.96936368942,-0.982078790665,90.0,0.00125600001775,1.0,0.0,0.0,0.0,1.0,0.0,0.0,0.0,1.0,-0.365853667259,2.43902444839,-0.670731723309,1.0,0.0,0.0,0.0,1.0,0.0,0.0,0.0,1.0,-0.641646044922,0.0478840332031,10.3716815918,1.0,0.0,0.0,0.0,1.0,0.0,0.0,0.0,1.0
1491900166414815111,439,1491900166412772090,,7.97064447403,-0.978267669678,90.0,0.00129799998831,1.0,0.0,0.0,0.0,1.0,0.0,0.0,0.0,1.0,-0.487804889679,2.19512200356,-0.548780500889,1.0,0.0,0.0,0.0,1.0,0.0,0.0,0.0,1.0,-0.512359155273,-0.148440512063,10.4243540283,1.0,0.0,0.0,0.0,1.0,0.0,0.0,0.0,1.0
1491900166435660010,440,1491900166433729697,,7.9706120491,-0.978078782558,90.0,0.0010529999854,1.0,0.0,0.0,0.0,1.0,0.0,0.0,0.0,1.0,-0.365853667259,2.13414645195,0.0609756112099,1.0,0.0,0.0,0.0,1.0,0.0,0.0,0.0,1.0,-0.703895288086,-0.124498486328,10.2376062988,1.0,0.0,0.0,0.0,1.0,0.0,0.0,0.0,1.0
1491900166456545013,441,1491900166454925169,,7.97385168076,-0.975536584854,90.0,0.00106899999082,1.0,0.0,0.0,0.0,1.0,0.0,0.0,0.0,1.0,-0.548780500889,2.31707310677,-0.304878056049,1.0,0.0,0.0,0.0,1.0,0.0,0.0,0.0,1.0,-0.703895288086,0.181959326172,10.1131078125,1.0,0.0,0.0,0.0,1.0,0.0,0.0,0.0,1.0
1491900166478027359,442,1491900166476219963,,7.9739074707,-0.972985982895,90.0,0.0010450000409,1.0,0.0,0.0,0.0,1.0,0.0,0.0,0.0,1.0,-0.0609756112099,2.25609779358,-0.670731723309,1.0,0.0,0.0,0.0,1.0,0.0,0.0,0.0,1.0,-0.60812722168,-0.0909796630859,10.5296989014,1.0,0.0,0.0,0.0,1.0,0.0,0.0,0.0,1.0
1491900166499115644,443,1491900166497563039,,7.97290325165,-0.967000126839,90.0,0.00101200002246,1.0,0.0,0.0,0.0,1.0,0.0,0.0,0.0,1.0,-0.487804889679,2.25609779358,-0.0609756112099,1.0,0.0,0.0,0.0,1.0,0.0,0.0,0.0,1.0,-0.603338854892,0.0478840332031,10.1322614258,1.0,0.0,0.0,0.0,1.0,0.0,0.0,0.0,1.0
1491900166519961376,444,1491900166518337886,,7.97213506699,-0.967300772667,90.0,0.00097499997355,1.0,0.0,0.0,0.0,1.0,0.0,0.0,0.0,1.0,-0.670731723309,2.37804889679,-0.304878056049,1.0,0.0,0.0,0.0,1.0,0.0,0.0,0.0,1.0,-0.622492431641,0.0,10.0843773926,1.0,0.0,0.0,0.0,1.0,0.0,0.0,0.0,1.0
1491900166540872681,445,1491900166539207316,,7.96932983398,-0.968806028366,90.0,0.00101100001484,1.0,0.0,0.0,0.0,1.0,0.0,0.0,0.0,1.0,-0.548780500889,2.25609779358,-0.243902444839,1.0,0.0,0.0,0.0,1.0,0.0,0.0,0.0,1.0,-0.60812722168,0.0526724365234,10.2471831055,1.0,0.0,0.0,0.0,1.0,0.0,0.0,0.0,1.0
1491900166561788049,446,1491900166559905861,,7.97006702423,-0.964671552181,90.0,0.00124400004279,1.0,0.0,0.0,0.0,1.0,0.0,0.0,0.0,1.0,-0.487804889679,2.25609779358,-0.304878056049,1.0,0.0,0.0,0.0,1.0,0.0,0.0,0.0,1.0,-0.588973571866,0.067037651051,10.4913916748,1.0,0.0,0.0,0.0,1.0,0.0,0.0,0.0,1.0
1491900166584612479,447,1491900166581258833,,7.96812391281,-0.965385019779,90.0,0.00100100005511,1.0,0.0,0.0,0.0,1.0,0.0,0.0,0.0,1.0,-0.548780500889,2.19512200356,-0.487804889679,1.0,0.0,0.0,0.0,1.0,0.0,0.0,0.0,1.0,-0.565031591797,-0.105344873047,10.3237975586,1.0,0.0,0.0,0.0,1.0,0.0,0.0,0.0,1.0
1491900166607648941,448,1491900166605663316,,7.96694803238,-0.963366031647,90.0,0.00259199994616,1.0,0.0,0.0,0.0,1.0,0.0,0.0,0.0,1.0,-0.243902444839,2.01219511032,-0.365853667259,1.0,0.0,0.0,0.0,1.0,0.0,0.0,0.0,1.0,-0.584185168546,0.0143652099609,10.299855542,1.0,0.0,0.0,0.0,1.0,0.0,0.0,0.0,1.0
1491900166630057277,449,1491900166627334100,,7.9669919014,-0.959496855736,90.0,0.00204900000244,1.0,0.0,0.0,0.0,1.0,0.0,0.0,0.0,1.0,-0.243902444839,2.5,-0.12195122242,1.0,0.0,0.0,0.0,1.0,0.0,0.0,0.0,1.0,-0.684741674805,0.00957680664062,10.1945106689,1.0,0.0,0.0,0.0,1.0,0.0,0.0,0.0,1.0
1491900166650788166,450,1491900166647834936,,7.97056007385,-0.957659184933,90.0,0.0033350000158,1.0,0.0,0.0,0.0,1.0,0.0,0.0,0.0,1.0,-0.365853667259,2.37804889679,-0.0609756112099,1.0,0.0,0.0,0.0,1.0,0.0,0.0,0.0,1.0,-0.588973571866,0.0191536132812,10.2184526855,1.0,0.0,0.0,0.0,1.0,0.0,0.0,0.0,1.0
1491900166671375304,451,1491900166669122752,,7.9712266922,-0.953080654144,90.0,0.00186900002882,1.0,0.0,0.0,0.0,1.0,0.0,0.0,0.0,1.0,-0.426829278469,2.19512200356,-0.365853667259,1.0,0.0,0.0,0.0,1.0,0.0,0.0,0.0,1.0,-0.588973571866,0.0622492431641,10.3046439453,1.0,0.0,0.0,0.0,1.0,0.0,0.0,0.0,1.0
1491900166692615412,452,1491900166690746661,,7.97060346603,-0.951570272446,90.0,0.00125600001775,1.0,0.0,0.0,0.0,1.0,0.0,0.0,0.0,1.0,-0.853658556938,2.19512200356,-0.365853667259,1.0,0.0,0.0,0.0,1.0,0.0,0.0,0.0,1.0,-0.574608398438,0.0287304199219,10.1274730225,1.0,0.0,0.0,0.0,1.0,0.0,0.0,0.0,1.0
1491900166713458592,453,1491900166711757289,,7.97462320328,-0.948981225491,90.0,0.00118499994278,1.0,0.0,0.0,0.0,1.0,0.0,0.0,0.0,1.0,-0.304878056049,2.13414645195,-0.426829278469,1.0,0.0,0.0,0.0,1.0,0.0,0.0,0.0,1.0,-0.550666381836,0.110133276367,10.1562034424,1.0,0.0,0.0,0.0,1.0,0.0,0.0,0.0,1.0
1491900166734243386,454,1491900166732621199,,7.97214460373,-0.947554886341,90.0,0.00121000001673,1.0,0.0,0.0,0.0,1.0,0.0,0.0,0.0,1.0,-0.487804889679,2.37804889679,-0.548780500889,1.0,0.0,0.0,0.0,1.0,0.0,0.0,0.0,1.0,-0.497993945312,-0.0191536132812,10.4435076416,1.0,0.0,0.0,0.0,1.0,0.0,0.0,0.0,1.0
1491900166755116306,455,1491900166753523181,,7.97082662582,-0.945128500462,90.0,0.00103899999522,1.0,0.0,0.0,0.0,1.0,0.0,0.0,0.0,1.0,-0.304878056049,2.31707310677,-0.243902444839,1.0,0.0,0.0,0.0,1.0,0.0,0.0,0.0,1.0,-0.670376464844,-0.124498486328,10.2711251221,1.0,0.0,0.0,0.0,1.0,0.0,0.0,0.0,1.0
1491900166776584903,456,1491900166773860788,,7.9691567421,-0.944022476673,90.0,0.00116800004616,1.0,0.0,0.0,0.0,1.0,0.0,0.0,0.0,1.0,-0.243902444839,2.25609779358,-0.243902444839,1.0,0.0,0.0,0.0,1.0,0.0,0.0,0.0,1.0,-0.684741674805,0.0,10.0700121826,1.0,0.0,0.0,0.0,1.0,0.0,0.0,0.0,1.0
1491900166796494385,457,1491900166794546364,,7.97060060501,-0.941826820374,90.0,0.00266900006682,1.0,0.0,0.0,0.0,1.0,0.0,0.0,0.0,1.0,-0.487804889679,2.25609779358,-0.243902444839,1.0,0.0,0.0,0.0,1.0,0.0,0.0,0.0,1.0,-0.742202514648,0.148440512063,10.1992990723,1.0,0.0,0.0,0.0,1.0,0.0,0.0,0.0,1.0
1491900166817168242,458,1491900166815488190,,7.96874713898,-0.941578745842,90.0,0.00101200002246,1.0,0.0,0.0,0.0,1.0,0.0,0.0,0.0,1.0,-0.243902444839,2.31707310677,-0.243902444839,1.0,0.0,0.0,0.0,1.0,0.0,0.0,0.0,1.0,-0.708683691406,0.138863696289,10.3094323486,1.0,0.0,0.0,0.0,1.0,0.0,0.0,0.0,1.0
1491900166837950797,459,1491900166836283557,,7.96849966049,-0.937715530396,90.0,0.00101799995173,1.0,0.0,0.0,0.0,1.0,0.0,0.0,0.0,1.0,-0.18292683363,2.25609779358,-0.243902444839,1.0,0.0,0.0,0.0,1.0,0.0,0.0,0.0,1.0,-0.612915625,-0.0622492431641,10.5105452881,1.0,0.0,0.0,0.0,1.0,0.0,0.0,0.0,1.0
1491900166858721842,460,1491900166856850227,,7.96656179428,-0.937700331211,90.0,0.00102600001264,1.0,0.0,0.0,0.0,1.0,0.0,0.0,0.0,1.0,-0.487804889679,2.25609779358,-0.365853667259,1.0,0.0,0.0,0.0,1.0,0.0,0.0,0.0,1.0,-0.574608398438,-0.110133276367,10.2280294922,1.0,0.0,0.0,0.0,1.0,0.0,0.0,0.0,1.0
1491900166879857939,461,1491900166878048980,,7.96771430969,-0.936870038509,90.0,0.00100199994631,1.0,0.0,0.0,0.0,1.0,0.0,0.0,0.0,1.0,-0.792682945728,2.37804889679,-0.0609756112099,1.0,0.0,0.0,0.0,1.0,0.0,0.0,0.0,1.0,-0.627280834961,0.0239420166016,9.88805285645,1.0,0.0,0.0,0.0,1.0,0.0,0.0,0.0,1.0
1491900166905408307,462,1491900166898561692,,7.96983671188,-0.936235964298,90.0,0.00102399999741,1.0,0.0,0.0,0.0,1.0,0.0,0.0,0.0,1.0,-0.487804889679,2.31707310677,-0.18292683363,1.0,0.0,0.0,0.0,1.0,0.0,0.0,0.0,1.0,-0.636857641602,0.105344873047,10.1131078125,1.0,0.0,0.0,0.0,1.0,0.0,0.0,0.0,1.0
1491900166923912112,463,1491900166919060028,,7.96966075897,-0.935277819633,90.0,0.00109799997881,1.0,0.0,0.0,0.0,1.0,0.0,0.0,0.0,1.0,-0.426829278469,2.13414645195,-0.0609756112099,1.0,0.0,0.0,0.0,1.0,0.0,0.0,0.0,1.0,-0.632069238281,0.0335188255255,10.3429511719,1.0,0.0,0.0,0.0,1.0,0.0,0.0,0.0,1.0
1491900166946028834,464,1491900166940150760,,7.96923398972,-0.932841062546,90.0,0.00100399996154,1.0,0.0,0.0,0.0,1.0,0.0,0.0,0.0,1.0,-0.365853667259,1.95121955872,-0.365853667259,1.0,0.0,0.0,0.0,1.0,0.0,0.0,0.0,1.0,-0.61770402832,0.0957680664062,10.4482960449,1.0,0.0,0.0,0.0,1.0,0.0,0.0,0.0,1.0
1491900166964109826,465,1491900166961055711,,7.96924448013,-0.932626366615,90.0,0.00103899999522,1.0,0.0,0.0,0.0,1.0,0.0,0.0,0.0,1.0,-0.304878056049,2.07317066193,-0.243902444839,1.0,0.0,0.0,0.0,1.0,0.0,0.0,0.0,1.0,-0.622492431641,-0.00478840332031,10.2471831055,1.0,0.0,0.0,0.0,1.0,0.0,0.0,0.0,1.0
1491900166984091183,466,1491900166982088422,,7.97070646286,-0.932165801525,90.0,0.00100399996154,1.0,0.0,0.0,0.0,1.0,0.0,0.0,0.0,1.0,-0.609756112099,2.37804889679,-0.12195122242,1.0,0.0,0.0,0.0,1.0,0.0,0.0,0.0,1.0,-0.660799658203,0.0383072265625,10.1418382324,1.0,0.0,0.0,0.0,1.0,0.0,0.0,0.0,1.0
1491900167004148426,467,1491900167002601290,,7.9717092514,-0.931048035622,90.0,0.00115899997763,1.0,0.0,0.0,0.0,1.0,0.0,0.0,0.0,1.0,-0.609756112099,2.31707310677,-0.365853667259,1.0,0.0,0.0,0.0,1.0,0.0,0.0,0.0,1.0,-0.675164868164,0.0143652099609,10.165780249,1.0,0.0,0.0,0.0,1.0,0.0,0.0,0.0,1.0
1491900167024894679,468,1491900167022978428,,7.97213935852,-0.926938891411,90.0,0.0010000000475,1.0,0.0,0.0,0.0,1.0,0.0,0.0,0.0,1.0,-0.365853667259,2.43902444839,-0.365853667259,1.0,0.0,0.0,0.0,1.0,0.0,0.0,0.0,1.0,-0.656011254883,0.0143652099609,10.0652237793,1.0,0.0,0.0,0.0,1.0,0.0,0.0,0.0,1.0
1491900167047618380,469,1491900167043852390,,7.97161102295,-0.924966573715,90.0,0.00140299997292,1.0,0.0,0.0,0.0,1.0,0.0,0.0,0.0,1.0,-0.609756112099,2.43902444839,-0.0609756112099,1.0,0.0,0.0,0.0,1.0,0.0,0.0,0.0,1.0,-0.708683691406,0.129286889648,10.2088758789,1.0,0.0,0.0,0.0,1.0,0.0,0.0,0.0,1.0
1491900167068325883,470,1491900167065034320,,7.97198104858,-0.924227833748,90.0,0.0012450000504,1.0,0.0,0.0,0.0,1.0,0.0,0.0,0.0,1.0,-0.12195122242,2.01219511032,-0.365853667259,1.0,0.0,0.0,0.0,1.0,0.0,0.0,0.0,1.0,-0.61770402832,-0.0335188255255,10.3285859619,1.0,0.0,0.0,0.0,1.0,0.0,0.0,0.0,1.0
1491900167088565417,471,1491900167085786771,,7.97089290619,-0.921557843685,90.0,0.00138200004585,1.0,0.0,0.0,0.0,1.0,0.0,0.0,0.0,1.0,-0.0609756112099,2.43902444839,-0.426829278469,1.0,0.0,0.0,0.0,1.0,0.0,0.0,0.0,1.0,-0.517147558594,-0.076614453125,10.2184526855,1.0,0.0,0.0,0.0,1.0,0.0,0.0,0.0,1.0
1491900167109320837,472,1491900167106219326,,7.97126340866,-0.918596208096,90.0,0.00131299998611,1.0,0.0,0.0,0.0,1.0,0.0,0.0,0.0,1.0,-0.731707334518,2.25609779358,0.0,1.0,0.0,0.0,0.0,1.0,0.0,0.0,0.0,1.0,-0.651222851562,-0.0191536132812,10.1083194092,1.0,0.0,0.0,0.0,1.0,0.0,0.0,0.0,1.0
1491900167130664642,473,1491900167127640996,,7.97094011307,-0.919081091881,90.0,0.00111399998423,1.0,0.0,0.0,0.0,1.0,0.0,0.0,0.0,1.0,-0.487804889679,2.5,-0.304878056049,1.0,0.0,0.0,0.0,1.0,0.0,0.0,0.0,1.0,-0.61770402832,0.0383072265625,10.1562034424,1.0,0.0,0.0,0.0,1.0,0.0,0.0,0.0,1.0
1491900167153642093,474,1491900167148857197,,7.96861791611,-0.917764902115,90.0,0.00105700001586,1.0,0.0,0.0,0.0,1.0,0.0,0.0,0.0,1.0,-0.609756112099,2.31707310677,-0.243902444839,1.0,0.0,0.0,0.0,1.0,0.0,0.0,0.0,1.0,-0.656011254883,0.0383072265625,10.3333743652,1.0,0.0,0.0,0.0,1.0,0.0,0.0,0.0,1.0
1491900167172593919,475,1491900167170111835,,7.97227573395,-0.916592895985,90.0,0.00113500002772,1.0,0.0,0.0,0.0,1.0,0.0,0.0,0.0,1.0,-0.487804889679,2.31707310677,-0.487804889679,1.0,0.0,0.0,0.0,1.0,0.0,0.0,0.0,1.0,-0.526724328702,-0.0287304199219,10.2519715088,1.0,0.0,0.0,0.0,1.0,0.0,0.0,0.0,1.0
1491900167193279182,476,1491900167190920067,,7.96837043762,-0.914272427559,90.0,0.0011569999624,1.0,0.0,0.0,0.0,1.0,0.0,0.0,0.0,1.0,-0.548780500889,2.37804889679,-0.548780500889,1.0,0.0,0.0,0.0,1.0,0.0,0.0,0.0,1.0,-0.517147558594,-0.0191536132812,10.2328178955,1.0,0.0,0.0,0.0,1.0,0.0,0.0,0.0,1.0
1491900167214208612,477,1491900167212073873,,7.968354702,-0.913353264332,90.0,0.0011419999646,1.0,0.0,0.0,0.0,1.0,0.0,0.0,0.0,1.0,-0.18292683363,2.37804889679,-0.548780500889,1.0,0.0,0.0,0.0,1.0,0.0,0.0,0.0,1.0,-0.656011254883,0.0430956298828,10.3621047852,1.0,0.0,0.0,0.0,1.0,0.0,0.0,0.0,1.0
1491900167236323824,478,1491900167233748095,,7.96739196777,-0.911475300789,90.0,0.0013569999719,1.0,0.0,0.0,0.0,1.0,0.0,0.0,0.0,1.0,-0.548780500889,2.25609779358,-0.365853667259,1.0,0.0,0.0,0.0,1.0,0.0,0.0,0.0,1.0,-0.723048901367,-0.0287304199219,10.0125513428,1.0,0.0,0.0,0.0,1.0,0.0,0.0,0.0,1.0
1491900167256119712,479,1491900167254494660,,7.9689617157,-0.910007476807,90.0,0.00136100000236,1.0,0.0,0.0,0.0,1.0,0.0,0.0,0.0,1.0,-0.487804889679,2.43902444839,-0.18292683363,1.0,0.0,0.0,0.0,1.0,0.0,0.0,0.0,1.0,-0.756567724609,0.148440512063,10.1466266357,1.0,0.0,0.0,0.0,1.0,0.0,0.0,0.0,1.0
1491900167277290653,480,1491900167274611590,,7.97075080872,-0.908298611641,90.0,0.00122800003737,1.0,0.0,0.0,0.0,1.0,0.0,0.0,0.0,1.0,-0.365853667259,2.37804889679,-0.243902444839,1.0,0.0,0.0,0.0,1.0,0.0,0.0,0.0,1.0,-0.699106884766,0.129286889648,10.1178962158,1.0,0.0,0.0,0.0,1.0,0.0,0.0,0.0,1.0
1491900167296841437,481,1491900167295275499,,7.96999788284,-0.910285890102,90.0,0.00124899996445,1.0,0.0,0.0,0.0,1.0,0.0,0.0,0.0,1.0,0.0,2.31707310677,-0.487804889679,1.0,0.0,0.0,0.0,1.0,0.0,0.0,0.0,1.0,-0.742202514648,0.129286889648,10.314220752,1.0,0.0,0.0,0.0,1.0,0.0,0.0,0.0,1.0
1491900167317976232,482,1491900167315857065,,7.96909093857,-0.910484313965,90.0,0.00100699998438,1.0,0.0,0.0,0.0,1.0,0.0,0.0,0.0,1.0,-0.426829278469,2.31707310677,-0.304878056049,1.0,0.0,0.0,0.0,1.0,0.0,0.0,0.0,1.0,-0.603338854892,-0.0574608398438,10.5296989014,1.0,0.0,0.0,0.0,1.0,0.0,0.0,0.0,1.0
1491900167341156391,483,1491900167336837172,,7.9659409523,-0.909170806408,90.0,0.0009710000013,1.0,0.0,0.0,0.0,1.0,0.0,0.0,0.0,1.0,-0.487804889679,2.37804889679,-0.426829278469,1.0,0.0,0.0,0.0,1.0,0.0,0.0,0.0,1.0,-0.593762048251,-0.114921679688,10.285490332,1.0,0.0,0.0,0.0,1.0,0.0,0.0,0.0,1.0
1491900167359901238,484,1491900167357533790,,7.96579265594,-0.908203005791,90.0,0.0009710000013,1.0,0.0,0.0,0.0,1.0,0.0,0.0,0.0,1.0,-0.548780500889,2.19512200356,-0.12195122242,1.0,0.0,0.0,0.0,1.0,0.0,0.0,0.0,1.0,-0.603338854892,0.0383072265625,10.1131078125,1.0,0.0,0.0,0.0,1.0,0.0,0.0,0.0,1.0
1491900167381112491,485,1491900167378498636,,7.96568584442,-0.907410383224,90.0,0.000969999993686,1.0,0.0,0.0,0.0,1.0,0.0,0.0,0.0,1.0,-0.609756112099,2.5,-0.12195122242,1.0,0.0,0.0,0.0,1.0,0.0,0.0,0.0,1.0,-0.641646044922,0.0287304199219,10.1466266357,1.0,0.0,0.0,0.0,1.0,0.0,0.0,0.0,1.0
1491900167400859004,486,1491900167399296921,,7.96918344498,-0.90737593174,90.0,0.00097499997355,1.0,0.0,0.0,0.0,1.0,0.0,0.0,0.0,1.0,-0.304878056049,2.07317066193,-0.18292683363,1.0,0.0,0.0,0.0,1.0,0.0,0.0,0.0,1.0,-0.713472094727,0.0430956298828,10.4099888184,1.0,0.0,0.0,0.0,1.0,0.0,0.0,0.0,1.0
1491900167423213226,487,1491900167420457028,,7.96774864197,-0.909194171429,90.0,0.00097499997355,1.0,0.0,0.0,0.0,1.0,0.0,0.0,0.0,1.0,-0.243902444839,2.13414645195,-0.304878056049,1.0,0.0,0.0,0.0,1.0,0.0,0.0,0.0,1.0,-0.526724328702,0.00957680664062,10.4004120117,1.0,0.0,0.0,0.0,1.0,0.0,0.0,0.0,1.0
1491900167444943802,488,1491900167441614427,,7.96438837051,-0.908326923847,90.0,0.000968999986071,1.0,0.0,0.0,0.0,1.0,0.0,0.0,0.0,1.0,-0.548780500889,2.5,-0.243902444839,1.0,0.0,0.0,0.0,1.0,0.0,0.0,0.0,1.0,-0.656011254883,-0.0430956298828,10.0748005859,1.0,0.0,0.0,0.0,1.0,0.0,0.0,0.0,1.0
1491900167464323545,489,1491900167462600992,,7.96322631836,-0.907422363758,90.0,0.00109599996358,1.0,0.0,0.0,0.0,1.0,0.0,0.0,0.0,1.0,-0.487804889679,2.43902444839,-0.12195122242,1.0,0.0,0.0,0.0,1.0,0.0,0.0,0.0,1.0,-0.622492431641,0.00478840332031,10.0795889893,1.0,0.0,0.0,0.0,1.0,0.0,0.0,0.0,1.0
1491900167488736569,490,1491900167485327402,,7.96174287796,-0.906309008598,90.0,0.00102600001264,1.0,0.0,0.0,0.0,1.0,0.0,0.0,0.0,1.0,-0.548780500889,2.13414645195,-0.426829278469,1.0,0.0,0.0,0.0,1.0,0.0,0.0,0.0,1.0,-0.636857641602,0.00478840332031,10.2615483154,1.0,0.0,0.0,0.0,1.0,0.0,0.0,0.0,1.0
1491900167509791468,491,1491900167506794332,,7.96018648148,-0.904853999615,90.0,0.00317899999209,1.0,0.0,0.0,0.0,1.0,0.0,0.0,0.0,1.0,-0.670731723309,2.19512200356,-0.426829278469,1.0,0.0,0.0,0.0,1.0,0.0,0.0,0.0,1.0,-0.60812722168,0.0718260498047,10.0795889893,1.0,0.0,0.0,0.0,1.0,0.0,0.0,0.0,1.0
1491900167532567826,492,1491900167528750950,,7.95912456512,-0.902435064316,90.0,0.00179100001696,1.0,0.0,0.0,0.0,1.0,0.0,0.0,0.0,1.0,-0.487804889679,2.37804889679,-0.304878056049,1.0,0.0,0.0,0.0,1.0,0.0,0.0,0.0,1.0,-0.569819995117,0.0909796630859,10.3190091553,1.0,0.0,0.0,0.0,1.0,0.0,0.0,0.0,1.0
1491900167551991005,493,1491900167549167515,,7.95518064499,-0.899859130383,90.0,0.00178499997128,1.0,0.0,0.0,0.0,1.0,0.0,0.0,0.0,1.0,-0.609756112099,2.19512200356,-0.18292683363,1.0,0.0,0.0,0.0,1.0,0.0,0.0,0.0,1.0,-0.60812722168,-0.00478840332031,10.1897222656,1.0,0.0,0.0,0.0,1.0,0.0,0.0,0.0,1.0
1491900167573869915,494,1491900167569836268,,7.95526075363,-0.900272488594,90.0,0.00109999999404,1.0,0.0,0.0,0.0,1.0,0.0,0.0,0.0,1.0,-0.548780500889,2.25609779358,-0.304878056049,1.0,0.0,0.0,0.0,1.0,0.0,0.0,0.0,1.0,-0.560243188477,-0.105344873047,10.299855542,1.0,0.0,0.0,0.0,1.0,0.0,0.0,0.0,1.0
1491900167593878303,495,1491900167591055438,,7.95798921585,-0.898572206497,90.0,0.00110200000927,1.0,0.0,0.0,0.0,1.0,0.0,0.0,0.0,1.0,-0.548780500889,2.07317066193,-0.12195122242,1.0,0.0,0.0,0.0,1.0,0.0,0.0,0.0,1.0,-0.565031591797,0.100556469727,10.3477395752,1.0,0.0,0.0,0.0,1.0,0.0,0.0,0.0,1.0
1491900167614394608,496,1491900167611582681,,7.95953989029,-0.897804379463,90.0,0.00110700004734,1.0,0.0,0.0,0.0,1.0,0.0,0.0,0.0,1.0,-0.487804889679,2.25609779358,-0.487804889679,1.0,0.0,0.0,0.0,1.0,0.0,0.0,0.0,1.0,-0.689530078125,-0.0430956298828,10.2950671387,1.0,0.0,0.0,0.0,1.0,0.0,0.0,0.0,1.0
1491900167635141382,497,1491900167632622736,,7.95827960968,-0.897763490677,90.0,0.00103399995714,1.0,0.0,0.0,0.0,1.0,0.0,0.0,0.0,1.0,-0.426829278469,2.25609779358,-0.426829278469,1.0,0.0,0.0,0.0,1.0,0.0,0.0,0.0,1.0,-0.555454785156,-0.105344873047,10.4004120117,1.0,0.0,0.0,0.0,1.0,0.0,0.0,0.0,1.0
1491900167656463625,498,1491900167653658885,,7.95842027664,-0.896497607231,90.0,0.00113099999726,1.0,0.0,0.0,0.0,1.0,0.0,0.0,0.0,1.0,-0.487804889679,2.5,-0.365853667259,1.0,0.0,0.0,0.0,1.0,0.0,0.0,0.0,1.0,-0.593762048251,-0.186747729492,10.1274730225,1.0,0.0,0.0,0.0,1.0,0.0,0.0,0.0,1.0
1491900167676288107,499,1491900167674679148,,7.96134328842,-0.892600357533,90.0,0.00138699996751,1.0,0.0,0.0,0.0,1.0,0.0,0.0,0.0,1.0,-0.304878056049,2.43902444839,-0.0609756112099,1.0,0.0,0.0,0.0,1.0,0.0,0.0,0.0,1.0,-0.656011254883,0.0430956298828,10.1370498291,1.0,0.0,0.0,0.0,1.0,0.0,0.0,0.0,1.0
1491900167697986183,500,1491900167696383162,,7.95981740952,-0.889870464802,90.0,0.00153899996076,1.0,0.0,0.0,0.0,1.0,0.0,0.0,0.0,1.0,-0.365853667259,2.31707310677,-0.670731723309,1.0,0.0,0.0,0.0,1.0,0.0,0.0,0.0,1.0,-0.574608398438,-0.114921679688,10.5727945312,1.0,0.0,0.0,0.0,1.0,0.0,0.0,0.0,1.0
1491900167719109884,501,1491900167717421655,,7.95879602432,-0.889748394489,90.0,0.000987999956124,1.0,0.0,0.0,0.0,1.0,0.0,0.0,0.0,1.0,-0.426829278469,2.31707310677,-0.304878056049,1.0,0.0,0.0,0.0,1.0,0.0,0.0,0.0,1.0,-0.526724328702,-0.114921679688,10.0412817627,1.0,0.0,0.0,0.0,1.0,0.0,0.0,0.0,1.0
1491900167739748845,502,1491900167738104522,,7.95741415024,-0.8881072402,90.0,0.00099400000181,1.0,0.0,0.0,0.0,1.0,0.0,0.0,0.0,1.0,-0.487804889679,2.43902444839,-0.243902444839,1.0,0.0,0.0,0.0,1.0,0.0,0.0,0.0,1.0,-0.622492431641,0.0430956298828,9.90720646973,1.0,0.0,0.0,0.0,1.0,0.0,0.0,0.0,1.0
1491900167763985307,503,1491900167759435411,,7.9568400383,-0.887090921402,90.0,0.00119900004938,1.0,0.0,0.0,0.0,1.0,0.0,0.0,0.0,1.0,-0.426829278469,2.19512200356,-0.304878056049,1.0,0.0,0.0,0.0,1.0,0.0,0.0,0.0,1.0,-0.622492431641,0.0335188255255,10.3477395752,1.0,0.0,0.0,0.0,1.0,0.0,0.0,0.0,1.0
1491900167785072029,504,1491900167780771455,,7.95196056366,-0.885437846184,90.0,0.00101699994411,1.0,0.0,0.0,0.0,1.0,0.0,0.0,0.0,1.0,-0.18292683363,2.13414645195,-0.487804889679,1.0,0.0,0.0,0.0,1.0,0.0,0.0,0.0,1.0,-0.45968671875,0.0287304199219,10.1705686523,1.0,0.0,0.0,0.0,1.0,0.0,0.0,0.0,1.0
1491900167806690157,505,1491900167803169063,,7.9506072998,-0.882846176624,90.0,0.00134399998933,1.0,0.0,0.0,0.0,1.0,0.0,0.0,0.0,1.0,-0.487804889679,2.31707310677,-0.426829278469,1.0,0.0,0.0,0.0,1.0,0.0,0.0,0.0,1.0,-0.684741674805,0.00957680664062,10.2471831055,1.0,0.0,0.0,0.0,1.0,0.0,0.0,0.0,1.0
1491900167827963962,506,1491900167824163805,,7.94974517822,-0.882470071316,90.0,0.00102600001264,1.0,0.0,0.0,0.0,1.0,0.0,0.0,0.0,1.0,-0.426829278469,2.31707310677,-0.426829278469,1.0,0.0,0.0,0.0,1.0,0.0,0.0,0.0,1.0,-0.598550451572,0.0574608398438,10.2759135254,1.0,0.0,0.0,0.0,1.0,0.0,0.0,0.0,1.0
1491900167848074642,507,1491900167844494121,,7.95046234131,-0.879579484463,90.0,0.00277899997309,1.0,0.0,0.0,0.0,1.0,0.0,0.0,0.0,1.0,-0.243902444839,2.37804889679,-0.18292683363,1.0,0.0,0.0,0.0,1.0,0.0,0.0,0.0,1.0,-0.555454785156,0.138863696289,10.299855542,1.0,0.0,0.0,0.0,1.0,0.0,0.0,0.0,1.0
1491900167869800791,508,1491900167865281676,,7.9506316185,-0.879114210606,90.0,0.00270400010049,1.0,0.0,0.0,0.0,1.0,0.0,0.0,0.0,1.0,-0.548780500889,2.07317066193,-0.487804889679,1.0,0.0,0.0,0.0,1.0,0.0,0.0,0.0,1.0,-0.60812722168,0.0191536132812,10.3956236084,1.0,0.0,0.0,0.0,1.0,0.0,0.0,0.0,1.0
1491900167890479284,509,1491900167886961471,,7.95023727417,-0.880377352238,90.0,0.00140199996531,1.0,0.0,0.0,0.0,1.0,0.0,0.0,0.0,1.0,-0.609756112099,2.37804889679,-0.365853667259,1.0,0.0,0.0,0.0,1.0,0.0,0.0,0.0,1.0,-0.512359155273,0.0239420166016,10.2711251221,1.0,0.0,0.0,0.0,1.0,0.0,0.0,0.0,1.0
1491900167911969495,510,1491900167908291682,,7.95275115967,-0.881604731083,90.0,0.00143599999137,1.0,0.0,0.0,0.0,1.0,0.0,0.0,0.0,1.0,-0.609756112099,2.56097555161,-0.12195122242,1.0,0.0,0.0,0.0,1.0,0.0,0.0,0.0,1.0,-0.612915625,0.114921679688,10.1322614258,1.0,0.0,0.0,0.0,1.0,0.0,0.0,0.0,1.0
1491900167931807884,511,1491900167929512258,,7.95791482925,-0.885451793671,90.0,0.00291100004688,1.0,0.0,0.0,0.0,1.0,0.0,0.0,0.0,1.0,-0.426829278469,2.13414645195,-0.365853667259,1.0,0.0,0.0,0.0,1.0,0.0,0.0,0.0,1.0,-0.598550451572,-0.0143652099609,10.3046439453,1.0,0.0,0.0,0.0,1.0,0.0,0.0,0.0,1.0
1491900167952660387,512,1491900167950360438,,7.95495653152,-0.886321008205,90.0,0.00117099995259,1.0,0.0,0.0,0.0,1.0,0.0,0.0,0.0,1.0,-0.243902444839,2.31707310677,-0.243902444839,1.0,0.0,0.0,0.0,1.0,0.0,0.0,0.0,1.0,-0.574608398438,0.119710083008,10.2807019287,1.0,0.0,0.0,0.0,1.0,0.0,0.0,0.0,1.0
1491900167972865806,513,1491900167970986744,,7.95764780045,-0.885581672192,90.0,0.00113999994937,1.0,0.0,0.0,0.0,1.0,0.0,0.0,0.0,1.0,-0.548780500889,2.37804889679,-0.487804889679,1.0,0.0,0.0,0.0,1.0,0.0,0.0,0.0,1.0,-0.598550451572,0.0287304199219,10.1370498291,1.0,0.0,0.0,0.0,1.0,0.0,0.0,0.0,1.0
1491900167995304091,514,1491900167992231330,,7.9586815834,-0.882679998875,90.0,0.00117699999828,1.0,0.0,0.0,0.0,1.0,0.0,0.0,0.0,1.0,-0.365853667259,2.19512200356,-0.365853667259,1.0,0.0,0.0,0.0,1.0,0.0,0.0,0.0,1.0,-0.61770402832,-0.0191536132812,10.4099888184,1.0,0.0,0.0,0.0,1.0,0.0,0.0,0.0,1.0
1491900168015476490,515,1491900168013553729,,7.95481824875,-0.886868596077,90.0,0.00105199997779,1.0,0.0,0.0,0.0,1.0,0.0,0.0,0.0,1.0,-0.731707334518,2.68292689323,-0.304878056049,1.0,0.0,0.0,0.0,1.0,0.0,0.0,0.0,1.0,-0.699106884766,-0.105344873047,10.2280294922,1.0,0.0,0.0,0.0,1.0,0.0,0.0,0.0,1.0
1491900168035998472,516,1491900168034129096,,7.95721578598,-0.887478649616,90.0,0.00107100000605,1.0,0.0,0.0,0.0,1.0,0.0,0.0,0.0,1.0,-0.426829278469,2.68292689323,-0.304878056049,1.0,0.0,0.0,0.0,1.0,0.0,0.0,0.0,1.0,-0.799663354492,0.0861912597656,10.0556469727,1.0,0.0,0.0,0.0,1.0,0.0,0.0,0.0,1.0
1491900168056932589,517,1491900168055229672,,7.96008062363,-0.887378811836,90.0,0.00109300005715,1.0,0.0,0.0,0.0,1.0,0.0,0.0,0.0,1.0,-0.304878056049,2.13414645195,-0.487804889679,1.0,0.0,0.0,0.0,1.0,0.0,0.0,0.0,1.0,-0.689530078125,0.15322890625,10.4626612549,1.0,0.0,0.0,0.0,1.0,0.0,0.0,0.0,1.0
1491900168077449051,518,1491900168075870248,,7.95818996429,-0.88568842411,90.0,0.00100299995393,1.0,0.0,0.0,0.0,1.0,0.0,0.0,0.0,1.0,-0.853658556938,2.37804889679,-0.426829278469,1.0,0.0,0.0,0.0,1.0,0.0,0.0,0.0,1.0,-0.550666381836,-0.0191536132812,10.5488525146,1.0,0.0,0.0,0.0,1.0,0.0,0.0,0.0,1.0
1491900168098015147,519,1491900168096492595,,7.95754623413,-0.884553670883,90.0,0.00101899995934,1.0,0.0,0.0,0.0,1.0,0.0,0.0,0.0,1.0,-0.18292683363,2.43902444839,-0.609756112099,1.0,0.0,0.0,0.0,1.0,0.0,0.0,0.0,1.0,-0.61770402832,-0.0814028564453,10.2950671387,1.0,0.0,0.0,0.0,1.0,0.0,0.0,0.0,1.0
1491900168119580359,520,1491900168117826296,,7.95704603195,-0.883372187614,90.0,0.000998000032268,1.0,0.0,0.0,0.0,1.0,0.0,0.0,0.0,1.0,-0.609756112099,2.25609779358,-0.365853667259,1.0,0.0,0.0,0.0,1.0,0.0,0.0,0.0,1.0,-0.660799658203,-0.0143652099609,9.97903251953,1.0,0.0,0.0,0.0,1.0,0.0,0.0,0.0,1.0
1491900168140367549,521,1491900168138754216,,7.95569610596,-0.879480779171,90.0,0.000972000008915,1.0,0.0,0.0,0.0,1.0,0.0,0.0,0.0,1.0,-0.304878056049,2.5,-0.12195122242,1.0,0.0,0.0,0.0,1.0,0.0,0.0,0.0,1.0,-0.61770402832,0.0478840332031,10.1514150391,1.0,0.0,0.0,0.0,1.0,0.0,0.0,0.0,1.0
1491900168161756042,522,1491900168159730104,,7.96190309525,-0.879131793976,90.0,0.00103899999522,1.0,0.0,0.0,0.0,1.0,0.0,0.0,0.0,1.0,-0.304878056049,2.25609779358,-0.18292683363,1.0,0.0,0.0,0.0,1.0,0.0,0.0,0.0,1.0,-0.598550451572,0.105344873047,10.4722380615,1.0,0.0,0.0,0.0,1.0,0.0,0.0,0.0,1.0
1491900168182034014,523,1491900168180165576,,7.95894241333,-0.877435266972,90.0,0.000990999978967,1.0,0.0,0.0,0.0,1.0,0.0,0.0,0.0,1.0,-0.426829278469,2.07317066193,-0.365853667259,1.0,0.0,0.0,0.0,1.0,0.0,0.0,0.0,1.0,-0.507570751953,0.00957680664062,10.4435076416,1.0,0.0,0.0,0.0,1.0,0.0,0.0,0.0,1.0
1491900168202662559,524,1491900168200655267,,7.95916175842,-0.875876009464,90.0,0.00101100001484,1.0,0.0,0.0,0.0,1.0,0.0,0.0,0.0,1.0,-0.304878056049,2.13414645195,-0.12195122242,1.0,0.0,0.0,0.0,1.0,0.0,0.0,0.0,1.0,-0.574608398438,-0.0143652099609,10.2807019287,1.0,0.0,0.0,0.0,1.0,0.0,0.0,0.0,1.0
1491900168223694593,525,1491900168221894072,,7.95962381363,-0.872685074806,90.0,0.000973000016529,1.0,0.0,0.0,0.0,1.0,0.0,0.0,0.0,1.0,-0.426829278469,2.31707310677,-0.12195122242,1.0,0.0,0.0,0.0,1.0,0.0,0.0,0.0,1.0,-0.574608398438,-0.0287304199219,10.1514150391,1.0,0.0,0.0,0.0,1.0,0.0,0.0,0.0,1.0
1491900168244626940,526,1491900168243137825,,7.9607872963,-0.872886538506,90.0,0.00105199997779,1.0,0.0,0.0,0.0,1.0,0.0,0.0,0.0,1.0,-0.426829278469,2.13414645195,-0.243902444839,1.0,0.0,0.0,0.0,1.0,0.0,0.0,0.0,1.0,-0.708683691406,0.0574608398438,10.1897222656,1.0,0.0,0.0,0.0,1.0,0.0,0.0,0.0,1.0
1491900168267197880,527,1491900168264462359,,7.95945882797,-0.872915625572,90.0,0.00128399999812,1.0,0.0,0.0,0.0,1.0,0.0,0.0,0.0,1.0,-0.12195122242,2.13414645195,-0.18292683363,1.0,0.0,0.0,0.0,1.0,0.0,0.0,0.0,1.0,-0.60812722168,0.0909796630859,10.2759135254,1.0,0.0,0.0,0.0,1.0,0.0,0.0,0.0,1.0
1491900168289399498,528,1491900168285454133,,7.96065473557,-0.869396686554,90.0,0.00147599994671,1.0,0.0,0.0,0.0,1.0,0.0,0.0,0.0,1.0,-0.243902444839,2.19512200356,-0.304878056049,1.0,0.0,0.0,0.0,1.0,0.0,0.0,0.0,1.0,-0.550666381836,0.0861912597656,10.3333743652,1.0,0.0,0.0,0.0,1.0,0.0,0.0,0.0,1.0
1491900168308520907,529,1491900168306622469,,7.95991754532,-0.871319115162,90.0,0.00111599999946,1.0,0.0,0.0,0.0,1.0,0.0,0.0,0.0,1.0,-0.609756112099,2.25609779358,-0.304878056049,1.0,0.0,0.0,0.0,1.0,0.0,0.0,0.0,1.0,-0.641646044922,0.0478840332031,10.2471831055,1.0,0.0,0.0,0.0,1.0,0.0,0.0,0.0,1.0
1491900168329379035,530,1491900168327709035,,7.96001434326,-0.871511161327,90.0,0.00104700005613,1.0,0.0,0.0,0.0,1.0,0.0,0.0,0.0,1.0,-0.365853667259,2.56097555161,-0.243902444839,1.0,0.0,0.0,0.0,1.0,0.0,0.0,0.0,1.0,-0.60812722168,0.0143652099609,10.1705686523,1.0,0.0,0.0,0.0,1.0,0.0,0.0,0.0,1.0
1491900168351972580,531,1491900168349232267,,7.95976924896,-0.873689472675,90.0,0.00207199994475,1.0,0.0,0.0,0.0,1.0,0.0,0.0,0.0,1.0,-0.487804889679,2.25609779358,-0.487804889679,1.0,0.0,0.0,0.0,1.0,0.0,0.0,0.0,1.0,-0.622492431641,0.076614453125,10.2711251221,1.0,0.0,0.0,0.0,1.0,0.0,0.0,0.0,1.0
1491900168370884666,532,1491900168368789718,,7.96324110031,-0.873470306396,90.0,0.00108299998101,1.0,0.0,0.0,0.0,1.0,0.0,0.0,0.0,1.0,-0.365853667259,2.68292689323,-0.304878056049,1.0,0.0,0.0,0.0,1.0,0.0,0.0,0.0,1.0,-0.612915625,0.100556469727,10.2471831055,1.0,0.0,0.0,0.0,1.0,0.0,0.0,0.0,1.0
1491900168392746753,533,1491900168390514200,,7.96323299408,-0.871057808399,90.0,0.00135200005025,1.0,0.0,0.0,0.0,1.0,0.0,0.0,0.0,1.0,-0.12195122242,2.01219511032,-0.304878056049,1.0,0.0,0.0,0.0,1.0,0.0,0.0,0.0,1.0,-0.517147558594,0.134075302102,10.1226846191,1.0,0.0,0.0,0.0,1.0,0.0,0.0,0.0,1.0
1491900168413861652,534,1491900168411284828,,7.96182012558,-0.871944844723,90.0,0.000988999963738,1.0,0.0,0.0,0.0,1.0,0.0,0.0,0.0,1.0,-0.304878056049,2.56097555161,-0.426829278469,1.0,0.0,0.0,0.0,1.0,0.0,0.0,0.0,1.0,-0.61770402832,0.15322890625,10.3285859619,1.0,0.0,0.0,0.0,1.0,0.0,0.0,0.0,1.0
1491900168434446967,535,1491900168432850977,,7.96122360229,-0.872194051743,90.0,0.00130600004923,1.0,0.0,0.0,0.0,1.0,0.0,0.0,0.0,1.0,-0.243902444839,2.43902444839,-0.243902444839,1.0,0.0,0.0,0.0,1.0,0.0,0.0,0.0,1.0,-0.579396801758,-0.0957680664062,10.4626612549,1.0,0.0,0.0,0.0,1.0,0.0,0.0,0.0,1.0
1491900168456329731,536,1491900168454028220,,7.96080303192,-0.873704612255,90.0,0.00106499996036,1.0,0.0,0.0,0.0,1.0,0.0,0.0,0.0,1.0,-0.304878056049,2.25609779358,-0.304878056049,1.0,0.0,0.0,0.0,1.0,0.0,0.0,0.0,1.0,-0.737414111328,-0.0574608398438,10.1178962158,1.0,0.0,0.0,0.0,1.0,0.0,0.0,0.0,1.0
1491900168476828640,537,1491900168475016140,,7.95903205872,-0.869377732277,90.0,0.00101000000723,1.0,0.0,0.0,0.0,1.0,0.0,0.0,0.0,1.0,-0.365853667259,2.07317066193,-0.243902444839,1.0,0.0,0.0,0.0,1.0,0.0,0.0,0.0,1.0,-0.636857641602,0.0957680664062,10.2328178955,1.0,0.0,0.0,0.0,1.0,0.0,0.0,0.0,1.0
1491900168497538383,538,1491900168496000622,,7.95895576477,-0.867338657379,90.0,0.00104799994733,1.0,0.0,0.0,0.0,1.0,0.0,0.0,0.0,1.0,-0.304878056049,2.25609779358,-0.792682945728,1.0,0.0,0.0,0.0,1.0,0.0,0.0,0.0,1.0,-0.603338854892,-0.067037651051,10.524910498,1.0,0.0,0.0,0.0,1.0,0.0,0.0,0.0,1.0
1491900168518614011,539,1491900168516973542,,7.95349359512,-0.867505311966,90.0,0.000985000049695,1.0,0.0,0.0,0.0,1.0,0.0,0.0,0.0,1.0,-0.548780500889,2.31707310677,-0.304878056049,1.0,0.0,0.0,0.0,1.0,0.0,0.0,0.0,1.0,-0.541089611728,-0.119710083008,10.1466266357,1.0,0.0,0.0,0.0,1.0,0.0,0.0,0.0,1.0
1491900168539934274,540,1491900168537993701,,7.95121049881,-0.867817521095,90.0,0.000979000004008,1.0,0.0,0.0,0.0,1.0,0.0,0.0,0.0,1.0,-0.12195122242,2.19512200356,-0.12195122242,1.0,0.0,0.0,0.0,1.0,0.0,0.0,0.0,1.0,-0.679953271484,0.0191536132812,9.92157167969,1.0,0.0,0.0,0.0,1.0,0.0,0.0,0.0,1.0
1491900168560729381,541,1491900168559039798,,7.95048332214,-0.867174267769,90.0,0.000976999988779,1.0,0.0,0.0,0.0,1.0,0.0,0.0,0.0,1.0,-0.18292683363,2.19512200356,-0.426829278469,1.0,0.0,0.0,0.0,1.0,0.0,0.0,0.0,1.0,-0.593762048251,0.0861912597656,10.2423947021,1.0,0.0,0.0,0.0,1.0,0.0,0.0,0.0,1.0
1491900168581957353,542,1491900168580156780,,7.95137119293,-0.865232825279,90.0,0.000983000034466,1.0,0.0,0.0,0.0,1.0,0.0,0.0,0.0,1.0,-0.304878056049,2.07317066193,-0.304878056049,1.0,0.0,0.0,0.0,1.0,0.0,0.0,0.0,1.0,-0.588973571866,0.0191536132812,10.3860468018,1.0,0.0,0.0,0.0,1.0,0.0,0.0,0.0,1.0
1491900168603302669,543,1491900168601137929,,7.95216846466,-0.865035116673,90.0,0.00101799995173,1.0,0.0,0.0,0.0,1.0,0.0,0.0,0.0,1.0,-0.365853667259,2.19512200356,-0.12195122242,1.0,0.0,0.0,0.0,1.0,0.0,0.0,0.0,1.0,-0.61770402832,-0.0957680664062,10.1992990723,1.0,0.0,0.0,0.0,1.0,0.0,0.0,0.0,1.0
1491900168625009912,544,1491900168623040016,,7.95676231384,-0.86311095953,90.0,0.000984000042081,1.0,0.0,0.0,0.0,1.0,0.0,0.0,0.0,1.0,-0.609756112099,2.19512200356,-0.304878056049,1.0,0.0,0.0,0.0,1.0,0.0,0.0,0.0,1.0,-0.646434448242,0.0430956298828,10.1466266357,1.0,0.0,0.0,0.0,1.0,0.0,0.0,0.0,1.0
1491900168646585748,545,1491900168643772466,,7.95982122421,-0.86223167181,90.0,0.00123299995903,1.0,0.0,0.0,0.0,1.0,0.0,0.0,0.0,1.0,-0.12195122242,2.43902444839,-0.548780500889,1.0,0.0,0.0,0.0,1.0,0.0,0.0,0.0,1.0,-0.641646044922,0.148440512063,10.3285859619,1.0,0.0,0.0,0.0,1.0,0.0,0.0,0.0,1.0
1491900168666969709,546,1491900168664347053,,7.96187877655,-0.860700428486,90.0,0.00130000000354,1.0,0.0,0.0,0.0,1.0,0.0,0.0,0.0,1.0,-0.304878056049,2.37804889679,-0.18292683363,1.0,0.0,0.0,0.0,1.0,0.0,0.0,0.0,1.0,-0.569819995117,0.067037651051,10.3812583984,1.0,0.0,0.0,0.0,1.0,0.0,0.0,0.0,1.0
1491900168687268567,547,1491900168685097993,,7.96121740341,-0.860790848732,90.0,0.00122600002214,1.0,0.0,0.0,0.0,1.0,0.0,0.0,0.0,1.0,-0.548780500889,2.07317066193,0.0,1.0,0.0,0.0,0.0,1.0,0.0,0.0,0.0,1.0,-0.641646044922,-0.00478840332031,10.2615483154,1.0,0.0,0.0,0.0,1.0,0.0,0.0,0.0,1.0
1491900168709036486,548,1491900168706222736,,7.95871496201,-0.863776564598,90.0,0.00110800005496,1.0,0.0,0.0,0.0,1.0,0.0,0.0,0.0,1.0,-0.243902444839,2.43902444839,-0.243902444839,1.0,0.0,0.0,0.0,1.0,0.0,0.0,0.0,1.0,-0.517147558594,0.0335188255255,10.1992990723,1.0,0.0,0.0,0.0,1.0,0.0,0.0,0.0,1.0
1491900168728979614,549,1491900168727175708,,7.9588599205,-0.862351000309,90.0,0.00107500003651,1.0,0.0,0.0,0.0,1.0,0.0,0.0,0.0,1.0,-0.670731723309,2.31707310677,-0.365853667259,1.0,0.0,0.0,0.0,1.0,0.0,0.0,0.0,1.0,-0.641646044922,0.00478840332031,10.2232410889,1.0,0.0,0.0,0.0,1.0,0.0,0.0,0.0,1.0
1491900168750914618,550,1491900168748551857,,7.95809364319,-0.863176465034,90.0,0.0010150000453,1.0,0.0,0.0,0.0,1.0,0.0,0.0,0.0,1.0,-0.426829278469,2.25609779358,-0.365853667259,1.0,0.0,0.0,0.0,1.0,0.0,0.0,0.0,1.0,-0.574608398438,0.0478840332031,10.1562034424,1.0,0.0,0.0,0.0,1.0,0.0,0.0,0.0,1.0
1491900168771677746,551,1491900168769195714,,7.95582723618,-0.865209698677,90.0,0.00100599997677,1.0,0.0,0.0,0.0,1.0,0.0,0.0,0.0,1.0,-0.365853667259,2.37804889679,-0.243902444839,1.0,0.0,0.0,0.0,1.0,0.0,0.0,0.0,1.0,-0.569819995117,0.0287304199219,10.2711251221,1.0,0.0,0.0,0.0,1.0,0.0,0.0,0.0,1.0
1491900168792276707,552,1491900168789829571,,7.95836257935,-0.861769258976,90.0,0.00183199997991,1.0,0.0,0.0,0.0,1.0,0.0,0.0,0.0,1.0,-0.365853667259,2.62195134163,-0.548780500889,1.0,0.0,0.0,0.0,1.0,0.0,0.0,0.0,1.0,-0.541089611728,-0.0191536132812,10.3860468018,1.0,0.0,0.0,0.0,1.0,0.0,0.0,0.0,1.0
1491900168813151658,553,1491900168810699678,,7.9596657753,-0.860249817371,90.0,0.0010229999898,1.0,0.0,0.0,0.0,1.0,0.0,0.0,0.0,1.0,-0.487804889679,2.25609779358,-0.731707334518,1.0,0.0,0.0,0.0,1.0,0.0,0.0,0.0,1.0,-0.569819995117,0.0861912597656,10.2376062988,1.0,0.0,0.0,0.0,1.0,0.0,0.0,0.0,1.0
1491900168834764161,554,1491900168832250879,,7.95908069611,-0.860759437084,90.0,0.00117099995259,1.0,0.0,0.0,0.0,1.0,0.0,0.0,0.0,1.0,-0.670731723309,2.31707310677,-0.487804889679,1.0,0.0,0.0,0.0,1.0,0.0,0.0,0.0,1.0,-0.565031591797,0.0287304199219,10.3573163818,1.0,0.0,0.0,0.0,1.0,0.0,0.0,0.0,1.0
1491900168855875883,555,1491900168853232601,,7.96037817001,-0.859373152256,90.0,0.0011340000201,1.0,0.0,0.0,0.0,1.0,0.0,0.0,0.0,1.0,-0.609756112099,2.37804889679,-0.487804889679,1.0,0.0,0.0,0.0,1.0,0.0,0.0,0.0,1.0,-0.612915625,-0.143652099609,10.3094323486,1.0,0.0,0.0,0.0,1.0,0.0,0.0,0.0,1.0
1491900168874967552,556,1491900168873301198,,7.96126747131,-0.858792126179,90.0,0.00117099995259,1.0,0.0,0.0,0.0,1.0,0.0,0.0,0.0,1.0,-0.426829278469,2.13414645195,-0.243902444839,1.0,0.0,0.0,0.0,1.0,0.0,0.0,0.0,1.0,-0.60812722168,-0.148440512063,10.1945106689,1.0,0.0,0.0,0.0,1.0,0.0,0.0,0.0,1.0
1491900168896241462,557,1491900168894731253,,7.96494960785,-0.859093666077,90.0,0.00124799995683,1.0,0.0,0.0,0.0,1.0,0.0,0.0,0.0,1.0,-0.365853667259,2.25609779358,0.0,1.0,0.0,0.0,0.0,1.0,0.0,0.0,0.0,1.0,-0.723048901367,0.110133276367,10.0029745361,1.0,0.0,0.0,0.0,1.0,0.0,0.0,0.0,1.0
1491900168917420058,558,1491900168915724173,,7.96568155289,-0.86170732975,90.0,0.000986999948509,1.0,0.0,0.0,0.0,1.0,0.0,0.0,0.0,1.0,-0.243902444839,2.25609779358,-0.548780500889,1.0,0.0,0.0,0.0,1.0,0.0,0.0,0.0,1.0,-0.603338854892,0.0622492431641,10.4866032715,1.0,0.0,0.0,0.0,1.0,0.0,0.0,0.0,1.0
1491900168938341728,559,1491900168936252822,,7.96545743942,-0.861392557621,90.0,0.000977999996394,1.0,0.0,0.0,0.0,1.0,0.0,0.0,0.0,1.0,-0.426829278469,2.19512200356,-0.487804889679,1.0,0.0,0.0,0.0,1.0,0.0,0.0,0.0,1.0,-0.646434448242,-0.110133276367,10.5823713379,1.0,0.0,0.0,0.0,1.0,0.0,0.0,0.0,1.0
1491900168959721002,560,1491900168957426991,,7.96520233154,-0.858597815037,90.0,0.000976999988779,1.0,0.0,0.0,0.0,1.0,0.0,0.0,0.0,1.0,-0.487804889679,2.19512200356,-0.487804889679,1.0,0.0,0.0,0.0,1.0,0.0,0.0,0.0,1.0,-0.622492431641,-0.0143652099609,9.97424411621,1.0,0.0,0.0,0.0,1.0,0.0,0.0,0.0,1.0
1491900168980232099,561,1491900168978537619,,7.96766853333,-0.859194517136,90.0,0.000980000011623,1.0,0.0,0.0,0.0,1.0,0.0,0.0,0.0,1.0,-0.365853667259,2.43902444839,-0.0609756112099,1.0,0.0,0.0,0.0,1.0,0.0,0.0,0.0,1.0,-0.699106884766,0.0383072265625,10.1705686523,1.0,0.0,0.0,0.0,1.0,0.0,0.0,0.0,1.0
1491900169004482727,562,1491900168999215018,,7.96580934525,-0.861362457275,90.0,0.0011040000245,1.0,0.0,0.0,0.0,1.0,0.0,0.0,0.0,1.0,-0.18292683363,2.13414645195,-0.243902444839,1.0,0.0,0.0,0.0,1.0,0.0,0.0,0.0,1.0,-0.713472094727,0.0574608398438,10.2040874756,1.0,0.0,0.0,0.0,1.0,0.0,0.0,0.0,1.0
1491900169021279032,563,1491900169019721636,,7.96767711639,-0.861780107021,90.0,0.0009710000013,1.0,0.0,0.0,0.0,1.0,0.0,0.0,0.0,1.0,-0.426829278469,2.07317066193,-0.487804889679,1.0,0.0,0.0,0.0,1.0,0.0,0.0,0.0,1.0,-0.588973571866,0.100556469727,10.4913916748,1.0,0.0,0.0,0.0,1.0,0.0,0.0,0.0,1.0
1491900169044968775,564,1491900169040713618,,7.96754360199,-0.859208464622,90.0,0.000972000008915,1.0,0.0,0.0,0.0,1.0,0.0,0.0,0.0,1.0,-0.365853667259,2.19512200356,-0.365853667259,1.0,0.0,0.0,0.0,1.0,0.0,0.0,0.0,1.0,-0.579396801758,-0.076614453125,10.2328178955,1.0,0.0,0.0,0.0,1.0,0.0,0.0,0.0,1.0
1491900169063590965,565,1491900169061648465,,7.96996688843,-0.858132123947,90.0,0.000972000008915,1.0,0.0,0.0,0.0,1.0,0.0,0.0,0.0,1.0,-0.548780500889,2.5,-0.487804889679,1.0,0.0,0.0,0.0,1.0,0.0,0.0,0.0,1.0,-0.560243188477,-0.105344873047,10.0843773926,1.0,0.0,0.0,0.0,1.0,0.0,0.0,0.0,1.0
1491900169084364458,566,1491900169083167999,,7.97239398956,-0.86182564497,90.0,0.0010529999854,1.0,0.0,0.0,0.0,1.0,0.0,0.0,0.0,1.0,-0.548780500889,2.43902444839,-0.243902444839,1.0,0.0,0.0,0.0,1.0,0.0,0.0,0.0,1.0,-0.632069238281,-0.0143652099609,10.165780249,1.0,0.0,0.0,0.0,1.0,0.0,0.0,0.0,1.0
1491900169106527430,567,1491900169104858367,,7.97195482254,-0.862724483013,90.0,0.00132899999153,1.0,0.0,0.0,0.0,1.0,0.0,0.0,0.0,1.0,-0.426829278469,2.13414645195,-0.487804889679,1.0,0.0,0.0,0.0,1.0,0.0,0.0,0.0,1.0,-0.612915625,0.134075302102,10.3429511719,1.0,0.0,0.0,0.0,1.0,0.0,0.0,0.0,1.0
1491900169127882797,568,1491900169125004359,,7.97374391556,-0.864511072636,90.0,0.00148099998478,1.0,0.0,0.0,0.0,1.0,0.0,0.0,0.0,1.0,-0.365853667259,2.31707310677,-0.243902444839,1.0,0.0,0.0,0.0,1.0,0.0,0.0,0.0,1.0,-0.588973571866,0.0622492431641,10.3477395752,1.0,0.0,0.0,0.0,1.0,0.0,0.0,0.0,1.0
1491900169147986602,569,1491900169146400561,,7.97311449051,-0.865638494492,90.0,0.00113900005817,1.0,0.0,0.0,0.0,1.0,0.0,0.0,0.0,1.0,-0.426829278469,2.13414645195,-0.426829278469,1.0,0.0,0.0,0.0,1.0,0.0,0.0,0.0,1.0,-0.565031591797,-0.0191536132812,10.1370498291,1.0,0.0,0.0,0.0,1.0,0.0,0.0,0.0,1.0
1491900169170604679,570,1491900169167928272,,7.97395324707,-0.864251375198,90.0,0.00126299995463,1.0,0.0,0.0,0.0,1.0,0.0,0.0,0.0,1.0,-0.609756112099,2.31707310677,-0.304878056049,1.0,0.0,0.0,0.0,1.0,0.0,0.0,0.0,1.0,-0.569819995117,-0.0239420166016,10.2184526855,1.0,0.0,0.0,0.0,1.0,0.0,0.0,0.0,1.0
1491900169190693275,571,1491900169188660254,,7.97468709946,-0.865015804768,90.0,0.00197699991986,1.0,0.0,0.0,0.0,1.0,0.0,0.0,0.0,1.0,-0.609756112099,2.5,-0.548780500889,1.0,0.0,0.0,0.0,1.0,0.0,0.0,0.0,1.0,-0.531512805087,0.00957680664062,10.2519715088,1.0,0.0,0.0,0.0,1.0,0.0,0.0,0.0,1.0
1491900169211718903,572,1491900169209657184,,7.97534132004,-0.864005565643,90.0,0.00184100004844,1.0,0.0,0.0,0.0,1.0,0.0,0.0,0.0,1.0,-0.609756112099,2.25609779358,-0.365853667259,1.0,0.0,0.0,0.0,1.0,0.0,0.0,0.0,1.0,-0.565031591797,0.00957680664062,10.299855542,1.0,0.0,0.0,0.0,1.0,0.0,0.0,0.0,1.0
1491900169233832188,573,1491900169230736250,,7.97459888458,-0.864055097103,90.0,0.00117399997544,1.0,0.0,0.0,0.0,1.0,0.0,0.0,0.0,1.0,-0.304878056049,2.13414645195,-0.548780500889,1.0,0.0,0.0,0.0,1.0,0.0,0.0,0.0,1.0,-0.507570751953,-0.0478840332031,10.4435076416,1.0,0.0,0.0,0.0,1.0,0.0,0.0,0.0,1.0
1491900169253506722,574,1491900169251026774,,7.97191619873,-0.865996062756,90.0,0.00109799997881,1.0,0.0,0.0,0.0,1.0,0.0,0.0,0.0,1.0,-0.548780500889,2.19512200356,-0.18292683363,1.0,0.0,0.0,0.0,1.0,0.0,0.0,0.0,1.0,-0.493205541992,0.105344873047,10.2184526855,1.0,0.0,0.0,0.0,1.0,0.0,0.0,0.0,1.0
1491900169275439954,575,1491900169272537246,,7.97072553635,-0.866853654385,90.0,0.00107700005174,1.0,0.0,0.0,0.0,1.0,0.0,0.0,0.0,1.0,-0.304878056049,2.13414645195,-0.304878056049,1.0,0.0,0.0,0.0,1.0,0.0,0.0,0.0,1.0,-0.636857641602,-0.114921679688,10.3716815918,1.0,0.0,0.0,0.0,1.0,0.0,0.0,0.0,1.0
1491900169295673186,576,1491900169293586572,,7.97109127045,-0.866690158844,90.0,0.00109499995597,1.0,0.0,0.0,0.0,1.0,0.0,0.0,0.0,1.0,-0.548780500889,2.25609779358,-0.548780500889,1.0,0.0,0.0,0.0,1.0,0.0,0.0,0.0,1.0,-0.641646044922,-0.143652099609,10.165780249,1.0,0.0,0.0,0.0,1.0,0.0,0.0,0.0,1.0
1491900169316399387,577,1491900169314132877,,7.97547578812,-0.866083025932,90.0,0.00110600003973,1.0,0.0,0.0,0.0,1.0,0.0,0.0,0.0,1.0,-0.365853667259,2.07317066193,-0.365853667259,1.0,0.0,0.0,0.0,1.0,0.0,0.0,0.0,1.0,-0.76135612793,0.134075302102,10.1466266357,1.0,0.0,0.0,0.0,1.0,0.0,0.0,0.0,1.0
1491900169338348818,578,1491900169335144338,,7.97575616837,-0.865786969662,90.0,0.00114800001029,1.0,0.0,0.0,0.0,1.0,0.0,0.0,0.0,1.0,-0.365853667259,2.37804889679,-0.426829278469,1.0,0.0,0.0,0.0,1.0,0.0,0.0,0.0,1.0,-0.746990917969,0.105344873047,10.3285859619,1.0,0.0,0.0,0.0,1.0,0.0,0.0,0.0,1.0
1491900169358800487,579,1491900169355927101,,7.97452163696,-0.866040229797,90.0,0.000976999988779,1.0,0.0,0.0,0.0,1.0,0.0,0.0,0.0,1.0,-0.12195122242,2.31707310677,-0.365853667259,1.0,0.0,0.0,0.0,1.0,0.0,0.0,0.0,1.0,-0.560243188477,-0.0718260498047,10.4961800781,1.0,0.0,0.0,0.0,1.0,0.0,0.0,0.0,1.0
1491900169378763667,580,1491900169376774552,,7.97448778152,-0.865321874619,90.0,0.00143900001422,1.0,0.0,0.0,0.0,1.0,0.0,0.0,0.0,1.0,-0.365853667259,2.43902444839,-0.18292683363,1.0,0.0,0.0,0.0,1.0,0.0,0.0,0.0,1.0,-0.651222851562,-0.167594116211,10.3094323486,1.0,0.0,0.0,0.0,1.0,0.0,0.0,0.0,1.0
1491900169399945441,581,1491900169398153826,,7.97434902191,-0.867008566856,90.0,0.000983000034466,1.0,0.0,0.0,0.0,1.0,0.0,0.0,0.0,1.0,-0.487804889679,2.25609779358,-0.426829278469,1.0,0.0,0.0,0.0,1.0,0.0,0.0,0.0,1.0,-0.646434448242,0.0526724365234,9.98860932617,1.0,0.0,0.0,0.0,1.0,0.0,0.0,0.0,1.0
1491900169420406330,582,1491900169418904819,,7.97445249557,-0.867050409317,90.0,0.0011569999624,1.0,0.0,0.0,0.0,1.0,0.0,0.0,0.0,1.0,-0.243902444839,2.25609779358,-0.426829278469,1.0,0.0,0.0,0.0,1.0,0.0,0.0,0.0,1.0,-0.574608398438,0.0861912597656,10.1705686523,1.0,0.0,0.0,0.0,1.0,0.0,0.0,0.0,1.0
1491900169441363572,583,1491900169439721072,,7.9725317955,-0.864902794361,90.0,0.00130200001877,1.0,0.0,0.0,0.0,1.0,0.0,0.0,0.0,1.0,-0.487804889679,2.01219511032,-0.243902444839,1.0,0.0,0.0,0.0,1.0,0.0,0.0,0.0,1.0,-0.584185168546,0.0335188255255,10.4866032715,1.0,0.0,0.0,0.0,1.0,0.0,0.0,0.0,1.0
1491900169462398732,584,1491900169460520085,,7.97090482712,-0.862536430359,90.0,0.00096700002905,1.0,0.0,0.0,0.0,1.0,0.0,0.0,0.0,1.0,-0.548780500889,2.13414645195,-0.548780500889,1.0,0.0,0.0,0.0,1.0,0.0,0.0,0.0,1.0,-0.60812722168,0.00957680664062,10.3716815918,1.0,0.0,0.0,0.0,1.0,0.0,0.0,0.0,1.0
1491900169482766964,585,1491900169480993370,,7.97182846069,-0.863301217556,90.0,0.000969999993686,1.0,0.0,0.0,0.0,1.0,0.0,0.0,0.0,1.0,-0.365853667259,2.19512200356,-0.243902444839,1.0,0.0,0.0,0.0,1.0,0.0,0.0,0.0,1.0,-0.603338854892,-0.0143652099609,10.3429511719,1.0,0.0,0.0,0.0,1.0,0.0,0.0,0.0,1.0
1491900169505696655,586,1491900169502730248,,7.97463607788,-0.863907516003,90.0,0.00102800002787,1.0,0.0,0.0,0.0,1.0,0.0,0.0,0.0,1.0,-0.548780500889,2.25609779358,-0.487804889679,1.0,0.0,0.0,0.0,1.0,0.0,0.0,0.0,1.0,-0.612915625,-0.0143652099609,10.1370498291,1.0,0.0,0.0,0.0,1.0,0.0,0.0,0.0,1.0
1491900169525377751,587,1491900169523809782,,7.97116518021,-0.862868905067,90.0,0.00126499996986,1.0,0.0,0.0,0.0,1.0,0.0,0.0,0.0,1.0,-0.18292683363,2.13414645195,-0.304878056049,1.0,0.0,0.0,0.0,1.0,0.0,0.0,0.0,1.0,-0.60812722168,0.0718260498047,10.2711251221,1.0,0.0,0.0,0.0,1.0,0.0,0.0,0.0,1.0
1491900169547176973,588,1491900169545367389,,7.97139549255,-0.861403822899,90.0,0.00114800001029,1.0,0.0,0.0,0.0,1.0,0.0,0.0,0.0,1.0,-0.18292683363,2.13414645195,-0.243902444839,1.0,0.0,0.0,0.0,1.0,0.0,0.0,0.0,1.0,-0.588973571866,-0.0335188255255,10.1992990723,1.0,0.0,0.0,0.0,1.0,0.0,0.0,0.0,1.0
1491900169570706404,589,1491900169566147340,,7.97307729721,-0.859556436539,90.0,0.00118699995801,1.0,0.0,0.0,0.0,1.0,0.0,0.0,0.0,1.0,-0.548780500889,2.19512200356,-0.304878056049,1.0,0.0,0.0,0.0,1.0,0.0,0.0,0.0,1.0,-0.646434448242,0.00957680664062,10.3477395752,1.0,0.0,0.0,0.0,1.0,0.0,0.0,0.0,1.0
1491900169590882552,590,1491900169588153073,,7.97578382492,-0.858723104,90.0,0.00172800000291,1.0,0.0,0.0,0.0,1.0,0.0,0.0,0.0,1.0,-0.670731723309,2.19512200356,-0.18292683363,1.0,0.0,0.0,0.0,1.0,0.0,0.0,0.0,1.0,-0.60812722168,0.0526724365234,10.2902787354,1.0,0.0,0.0,0.0,1.0,0.0,0.0,0.0,1.0
1491900169611777087,591,1491900169610059378,,7.97419977188,-0.858616769314,90.0,0.00185500003863,1.0,0.0,0.0,0.0,1.0,0.0,0.0,0.0,1.0,-0.243902444839,2.5,-0.487804889679,1.0,0.0,0.0,0.0,1.0,0.0,0.0,0.0,1.0,-0.517147558594,0.0574608398438,10.2519715088,1.0,0.0,0.0,0.0,1.0,0.0,0.0,0.0,1.0
1491900169632882767,592,1491900169629665579,,7.97366952896,-0.855885148048,90.0,0.00108199997339,1.0,0.0,0.0,0.0,1.0,0.0,0.0,0.0,1.0,-0.609756112099,2.25609779358,-0.365853667259,1.0,0.0,0.0,0.0,1.0,0.0,0.0,0.0,1.0,-0.641646044922,0.0239420166016,10.3812583984,1.0,0.0,0.0,0.0,1.0,0.0,0.0,0.0,1.0
1491900169654465009,593,1491900169650426884,,7.97081804276,-0.858916401863,90.0,0.00101400003769,1.0,0.0,0.0,0.0,1.0,0.0,0.0,0.0,1.0,-0.670731723309,2.13414645195,-0.548780500889,1.0,0.0,0.0,0.0,1.0,0.0,0.0,0.0,1.0,-0.636857641602,0.0,10.1370498291,1.0,0.0,0.0,0.0,1.0,0.0,0.0,0.0,1.0
1491900169675249804,594,1491900169672420012,,7.96596431732,-0.861296832561,90.0,0.00169900001492,1.0,0.0,0.0,0.0,1.0,0.0,0.0,0.0,1.0,-0.792682945728,2.31707310677,-0.487804889679,1.0,0.0,0.0,0.0,1.0,0.0,0.0,0.0,1.0,-0.507570751953,-0.0718260498047,10.4004120117,1.0,0.0,0.0,0.0,1.0,0.0,0.0,0.0,1.0
1491900169696439130,595,1491900169693733921,,7.96274709702,-0.861299991608,90.0,0.0011040000245,1.0,0.0,0.0,0.0,1.0,0.0,0.0,0.0,1.0,-0.487804889679,2.37804889679,-0.12195122242,1.0,0.0,0.0,0.0,1.0,0.0,0.0,0.0,1.0,-0.603338854892,-0.143652099609,10.2280294922,1.0,0.0,0.0,0.0,1.0,0.0,0.0,0.0,1.0
1491900169716681737,596,1491900169714497779,,7.96631860733,-0.85767865181,90.0,0.00114499998745,1.0,0.0,0.0,0.0,1.0,0.0,0.0,0.0,1.0,-0.365853667259,2.25609779358,-0.18292683363,1.0,0.0,0.0,0.0,1.0,0.0,0.0,0.0,1.0,-0.804451757813,0.0478840332031,9.94072529297,1.0,0.0,0.0,0.0,1.0,0.0,0.0,0.0,1.0
1491900169740064345,597,1491900169735831532,,7.96791601181,-0.857747554779,90.0,0.00102099997457,1.0,0.0,0.0,0.0,1.0,0.0,0.0,0.0,1.0,-0.365853667259,2.25609779358,-0.365853667259,1.0,0.0,0.0,0.0,1.0,0.0,0.0,0.0,1.0,-0.588973571866,-0.0430956298828,10.5057568848,1.0,0.0,0.0,0.0,1.0,0.0,0.0,0.0,1.0
1491900169758958775,598,1491900169756511014,,7.96917724609,-0.858912944794,90.0,0.00106799998321,1.0,0.0,0.0,0.0,1.0,0.0,0.0,0.0,1.0,-0.304878056049,2.37804889679,-0.426829278469,1.0,0.0,0.0,0.0,1.0,0.0,0.0,0.0,1.0,-0.61770402832,-0.124498486328,10.4626612549,1.0,0.0,0.0,0.0,1.0,0.0,0.0,0.0,1.0
1491900169780001851,599,1491900169777435444,,7.96840667725,-0.855744600296,90.0,0.00103199994192,1.0,0.0,0.0,0.0,1.0,0.0,0.0,0.0,1.0,-0.487804889679,2.43902444839,-0.0609756112099,1.0,0.0,0.0,0.0,1.0,0.0,0.0,0.0,1.0,-0.588973571866,-0.0383072265625,9.94551369629,1.0,0.0,0.0,0.0,1.0,0.0,0.0,0.0,1.0
1491900169800265968,600,1491900169798746645,,7.96627569199,-0.856047689915,90.0,0.0010150000453,1.0,0.0,0.0,0.0,1.0,0.0,0.0,0.0,1.0,-0.426829278469,2.07317066193,-0.18292683363,1.0,0.0,0.0,0.0,1.0,0.0,0.0,0.0,1.0,-0.699106884766,0.0383072265625,10.299855542,1.0,0.0,0.0,0.0,1.0,0.0,0.0,0.0,1.0
1491900169822471909,601,1491900169819940138,,7.96604537964,-0.85536801815,90.0,0.00100699998438,1.0,0.0,0.0,0.0,1.0,0.0,0.0,0.0,1.0,-0.243902444839,1.95121955872,-0.426829278469,1.0,0.0,0.0,0.0,1.0,0.0,0.0,0.0,1.0,-0.636857641602,0.00478840332031,10.4913916748,1.0,0.0,0.0,0.0,1.0,0.0,0.0,0.0,1.0
1491900169842672901,602,1491900169840774932,,7.96778345108,-0.854721724987,90.0,0.00102399999741,1.0,0.0,0.0,0.0,1.0,0.0,0.0,0.0,1.0,-0.365853667259,2.25609779358,-0.243902444839,1.0,0.0,0.0,0.0,1.0,0.0,0.0,0.0,1.0,-0.622492431641,0.0574608398438,10.2232410889,1.0,0.0,0.0,0.0,1.0,0.0,0.0,0.0,1.0
1491900169863538582,603,1491900169861490665,,7.96746778488,-0.859128296375,90.0,0.0010150000453,1.0,0.0,0.0,0.0,1.0,0.0,0.0,0.0,1.0,-0.609756112099,2.01219511032,-0.426829278469,1.0,0.0,0.0,0.0,1.0,0.0,0.0,0.0,1.0,-0.603338854892,-0.0143652099609,10.180145459,1.0,0.0,0.0,0.0,1.0,0.0,0.0,0.0,1.0
1491900169885650095,604,1491900169882471345,,7.96624183655,-0.855704843998,90.0,0.0010450000409,1.0,0.0,0.0,0.0,1.0,0.0,0.0,0.0,1.0,-0.426829278469,2.5,-0.18292683363,1.0,0.0,0.0,0.0,1.0,0.0,0.0,0.0,1.0,-0.61770402832,0.00478840332031,10.0508585693,1.0,0.0,0.0,0.0,1.0,0.0,0.0,0.0,1.0
1491900169907426973,605,1491900169903719785,,7.96708393097,-0.85880959034,90.0,0.00109899998643,1.0,0.0,0.0,0.0,1.0,0.0,0.0,0.0,1.0,-0.487804889679,2.37804889679,-0.18292683363,1.0,0.0,0.0,0.0,1.0,0.0,0.0,0.0,1.0,-0.627280834961,0.105344873047,10.1322614258,1.0,0.0,0.0,0.0,1.0,0.0,0.0,0.0,1.0
1491900169928409216,606,1491900169924727809,,7.9674539566,-0.854650974274,90.0,0.00156200001948,1.0,0.0,0.0,0.0,1.0,0.0,0.0,0.0,1.0,-0.243902444839,2.25609779358,-0.731707334518,1.0,0.0,0.0,0.0,1.0,0.0,0.0,0.0,1.0,-0.627280834961,0.067037651051,10.3812583984,1.0,0.0,0.0,0.0,1.0,0.0,0.0,0.0,1.0
1491900169948760886,607,1491900169946260729,,7.97029542923,-0.849766850471,90.0,0.00116400001571,1.0,0.0,0.0,0.0,1.0,0.0,0.0,0.0,1.0,-0.365853667259,2.19512200356,-0.0609756112099,1.0,0.0,0.0,0.0,1.0,0.0,0.0,0.0,1.0,-0.560243188477,0.0191536132812,10.2519715088,1.0,0.0,0.0,0.0,1.0,0.0,0.0,0.0,1.0
1491900169971308129,608,1491900169967792816,,7.97048664093,-0.846867144108,90.0,0.00152399996296,1.0,0.0,0.0,0.0,1.0,0.0,0.0,0.0,1.0,-0.426829278469,2.37804889679,-0.18292683363,1.0,0.0,0.0,0.0,1.0,0.0,0.0,0.0,1.0,-0.641646044922,0.0191536132812,10.3668931885,1.0,0.0,0.0,0.0,1.0,0.0,0.0,0.0,1.0
1491900169992969382,609,1491900169989232298,,7.9693479538,-0.848637461662,90.0,0.00111099996138,1.0,0.0,0.0,0.0,1.0,0.0,0.0,0.0,1.0,-0.487804889679,2.25609779358,-0.243902444839,1.0,0.0,0.0,0.0,1.0,0.0,0.0,0.0,1.0,-0.560243188477,0.0574608398438,10.314220752,1.0,0.0,0.0,0.0,1.0,0.0,0.0,0.0,1.0
1491900170013601208,610,1491900170009286884,,7.96686792374,-0.850539982319,90.0,0.00200299988501,1.0,0.0,0.0,0.0,1.0,0.0,0.0,0.0,1.0,-0.304878056049,2.25609779358,-0.426829278469,1.0,0.0,0.0,0.0,1.0,0.0,0.0,0.0,1.0,-0.584185168546,-0.0335188255255,10.3333743652,1.0,0.0,0.0,0.0,1.0,0.0,0.0,0.0,1.0
1491900170033067981,611,1491900170031279596,,7.96737909317,-0.851561963558,90.0,0.00113500002772,1.0,0.0,0.0,0.0,1.0,0.0,0.0,0.0,1.0,-0.487804889679,2.43902444839,-0.426829278469,1.0,0.0,0.0,0.0,1.0,0.0,0.0,0.0,1.0,-0.550666381836,0.119710083008,10.3333743652,1.0,0.0,0.0,0.0,1.0,0.0,0.0,0.0,1.0
1491900170055532516,612,1491900170052141994,,7.96223163605,-0.851000010967,90.0,0.00126000004821,1.0,0.0,0.0,0.0,1.0,0.0,0.0,0.0,1.0,-0.426829278469,2.25609779358,-0.426829278469,1.0,0.0,0.0,0.0,1.0,0.0,0.0,0.0,1.0,-0.555454785156,-0.0335188255255,10.3190091553,1.0,0.0,0.0,0.0,1.0,0.0,0.0,0.0,1.0
1491900170076163665,613,1491900170072760175,,7.96113824844,-0.844769597054,90.0,0.00102399999741,1.0,0.0,0.0,0.0,1.0,0.0,0.0,0.0,1.0,-0.18292683363,2.37804889679,-0.487804889679,1.0,0.0,0.0,0.0,1.0,0.0,0.0,0.0,1.0,-0.61770402832,-0.15801730957,10.3908352051,1.0,0.0,0.0,0.0,1.0,0.0,0.0,0.0,1.0
1491900170096513355,614,1491900170093439969,,7.96330308914,-0.84306281805,90.0,0.00114599999506,1.0,0.0,0.0,0.0,1.0,0.0,0.0,0.0,1.0,-0.609756112099,2.31707310677,-0.365853667259,1.0,0.0,0.0,0.0,1.0,0.0,0.0,0.0,1.0,-0.593762048251,-0.0814028564453,10.1274730225,1.0,0.0,0.0,0.0,1.0,0.0,0.0,0.0,1.0
1491900170119055442,615,1491900170114664868,,7.96377134323,-0.841191887856,90.0,0.00106399995275,1.0,0.0,0.0,0.0,1.0,0.0,0.0,0.0,1.0,0.0,2.25609779358,-0.487804889679,1.0,0.0,0.0,0.0,1.0,0.0,0.0,0.0,1.0,-0.670376464844,0.129286889648,10.1992990723,1.0,0.0,0.0,0.0,1.0,0.0,0.0,0.0,1.0
1491900170139017997,616,1491900170135852528,,7.96606063843,-0.841560065746,90.0,0.00118899997324,1.0,0.0,0.0,0.0,1.0,0.0,0.0,0.0,1.0,-0.304878056049,2.25609779358,-0.487804889679,1.0,0.0,0.0,0.0,1.0,0.0,0.0,0.0,1.0,-0.526724328702,0.0191536132812,10.4961800781,1.0,0.0,0.0,0.0,1.0,0.0,0.0,0.0,1.0
1491900170158827687,617,1491900170156960395,,7.9717965126,-0.841844141483,90.0,0.00100599997677,1.0,0.0,0.0,0.0,1.0,0.0,0.0,0.0,1.0,-0.426829278469,2.37804889679,-0.243902444839,1.0,0.0,0.0,0.0,1.0,0.0,0.0,0.0,1.0,-0.584185168546,-0.067037651051,10.2471831055,1.0,0.0,0.0,0.0,1.0,0.0,0.0,0.0,1.0
1491900170180356076,618,1491900170178069148,,7.97183322906,-0.838476359844,90.0,0.00100699998438,1.0,0.0,0.0,0.0,1.0,0.0,0.0,0.0,1.0,-0.548780500889,2.56097555161,-0.243902444839,1.0,0.0,0.0,0.0,1.0,0.0,0.0,0.0,1.0,-0.632069238281,0.00957680664062,10.1226846191,1.0,0.0,0.0,0.0,1.0,0.0,0.0,0.0,1.0
1491900170202059516,619,1491900170198589620,,7.97190856934,-0.837413430214,90.0,0.00100599997677,1.0,0.0,0.0,0.0,1.0,0.0,0.0,0.0,1.0,-0.792682945728,2.37804889679,-0.304878056049,1.0,0.0,0.0,0.0,1.0,0.0,0.0,0.0,1.0,-0.713472094727,-0.0478840332031,10.2088758789,1.0,0.0,0.0,0.0,1.0,0.0,0.0,0.0,1.0
1491900170224575926,620,1491900170220168790,,7.96918916702,-0.838584542274,90.0,0.001007999992,1.0,0.0,0.0,0.0,1.0,0.0,0.0,0.0,1.0,-0.365853667259,2.07317066193,-0.18292683363,1.0,0.0,0.0,0.0,1.0,0.0,0.0,0.0,1.0,-0.646434448242,-0.0143652099609,10.4530844482,1.0,0.0,0.0,0.0,1.0,0.0,0.0,0.0,1.0
1491900170243456658,621,1491900170240298116,,7.96881532669,-0.840757191181,90.0,0.000975999981165,1.0,0.0,0.0,0.0,1.0,0.0,0.0,0.0,1.0,-0.548780500889,2.13414645195,-0.365853667259,1.0,0.0,0.0,0.0,1.0,0.0,0.0,0.0,1.0,-0.541089611728,0.00957680664062,10.3716815918,1.0,0.0,0.0,0.0,1.0,0.0,0.0,0.0,1.0
1491900170262852181,622,1491900170260778796,,7.96774721146,-0.841836631298,90.0,0.000979000004008,1.0,0.0,0.0,0.0,1.0,0.0,0.0,0.0,1.0,-0.548780500889,2.13414645195,-0.18292683363,1.0,0.0,0.0,0.0,1.0,0.0,0.0,0.0,1.0,-0.632069238281,-0.0383072265625,10.3573163818,1.0,0.0,0.0,0.0,1.0,0.0,0.0,0.0,1.0
1491900170284668799,623,1491900170283683591,,7.96577787399,-0.841765522957,90.0,0.000951000023633,1.0,0.0,0.0,0.0,1.0,0.0,0.0,0.0,1.0,0.0,2.74390244484,-0.609756112099,1.0,0.0,0.0,0.0,1.0,0.0,0.0,0.0,1.0,-0.622492431641,0.124498486328,10.2519715088,1.0,0.0,0.0,0.0,1.0,0.0,0.0,0.0,1.0
1491900170308185313,624,1491900170305428906,,7.9646692276,-0.843099236488,90.0,0.00376400002278,1.0,0.0,0.0,0.0,1.0,0.0,0.0,0.0,1.0,-0.365853667259,2.13414645195,-0.426829278469,1.0,0.0,0.0,0.0,1.0,0.0,0.0,0.0,1.0,-0.627280834961,-0.0335188255255,10.3716815918,1.0,0.0,0.0,0.0,1.0,0.0,0.0,0.0,1.0
1491900170327329170,625,1491900170326204118,,7.96501016617,-0.84479612112,90.0,0.00108499999624,1.0,0.0,0.0,0.0,1.0,0.0,0.0,0.0,1.0,-0.426829278469,2.19512200356,-0.243902444839,1.0,0.0,0.0,0.0,1.0,0.0,0.0,0.0,1.0,-0.521935925381,-0.0622492431641,10.314220752,1.0,0.0,0.0,0.0,1.0,0.0,0.0,0.0,1.0
1491900170350718288,626,1491900170349139694,,7.96573829651,-0.845893502235,90.0,0.00474999984726,1.0,0.0,0.0,0.0,1.0,0.0,0.0,0.0,1.0,-0.304878056049,2.31707310677,-0.304878056049,1.0,0.0,0.0,0.0,1.0,0.0,0.0,0.0,1.0,-0.550666381836,0.0,10.3429511719,1.0,0.0,0.0,0.0,1.0,0.0,0.0,0.0,1.0
1491900170371442562,627,1491900170369733603,,7.96649551392,-0.84551012516,90.0,0.001007999992,1.0,0.0,0.0,0.0,1.0,0.0,0.0,0.0,1.0,-0.365853667259,2.25609779358,-0.243902444839,1.0,0.0,0.0,0.0,1.0,0.0,0.0,0.0,1.0,-0.521935925381,-0.0478840332031,10.2280294922,1.0,0.0,0.0,0.0,1.0,0.0,0.0,0.0,1.0
1491900170393304648,628,1491900170390808867,,7.96790218353,-0.841900110245,90.0,0.00123699998949,1.0,0.0,0.0,0.0,1.0,0.0,0.0,0.0,1.0,-0.243902444839,2.37804889679,-0.487804889679,1.0,0.0,0.0,0.0,1.0,0.0,0.0,0.0,1.0,-0.555454785156,0.0478840332031,10.299855542,1.0,0.0,0.0,0.0,1.0,0.0,0.0,0.0,1.0
1491900170414020120,629,1491900170412046630,,7.96619176865,-0.840879142284,90.0,0.00110700004734,1.0,0.0,0.0,0.0,1.0,0.0,0.0,0.0,1.0,-0.487804889679,2.43902444839,-0.609756112099,1.0,0.0,0.0,0.0,1.0,0.0,0.0,0.0,1.0,-0.656011254883,0.100556469727,10.419565625,1.0,0.0,0.0,0.0,1.0,0.0,0.0,0.0,1.0
1491900170435244186,630,1491900170433680592,,7.9644203186,-0.844336032867,90.0,0.00159400003031,1.0,0.0,0.0,0.0,1.0,0.0,0.0,0.0,1.0,-0.18292683363,2.43902444839,-0.12195122242,1.0,0.0,0.0,0.0,1.0,0.0,0.0,0.0,1.0,-0.703895288086,-0.110133276367,10.1418382324,1.0,0.0,0.0,0.0,1.0,0.0,0.0,0.0,1.0
1491900170455708460,631,1491900170454475386,,7.96646881104,-0.841898858547,90.0,0.00190300005488,1.0,0.0,0.0,0.0,1.0,0.0,0.0,0.0,1.0,-0.487804889679,2.19512200356,-0.18292683363,1.0,0.0,0.0,0.0,1.0,0.0,0.0,0.0,1.0,-0.718260498047,0.15801730957,10.2184526855,1.0,0.0,0.0,0.0,1.0,0.0,0.0,0.0,1.0
1491900170476834192,632,1491900170475604817,,7.96637916565,-0.837812423706,90.0,0.0026380000636,1.0,0.0,0.0,0.0,1.0,0.0,0.0,0.0,1.0,-0.0609756112099,2.13414645195,-0.487804889679,1.0,0.0,0.0,0.0,1.0,0.0,0.0,0.0,1.0,-0.565031591797,-0.0143652099609,10.5105452881,1.0,0.0,0.0,0.0,1.0,0.0,0.0,0.0,1.0
1491900170497782268,633,1491900170496609195,,7.96539163589,-0.840511262417,90.0,0.00115400005598,1.0,0.0,0.0,0.0,1.0,0.0,0.0,0.0,1.0,-0.487804889679,2.37804889679,-0.487804889679,1.0,0.0,0.0,0.0,1.0,0.0,0.0,0.0,1.0,-0.512359155273,-0.105344873047,10.4961800781,1.0,0.0,0.0,0.0,1.0,0.0,0.0,0.0,1.0
1491900170519329146,634,1491900170517433260,,7.9655175209,-0.844669997692,90.0,0.0010969999712,1.0,0.0,0.0,0.0,1.0,0.0,0.0,0.0,1.0,-0.548780500889,2.37804889679,-0.0609756112099,1.0,0.0,0.0,0.0,1.0,0.0,0.0,0.0,1.0,-0.579396801758,0.00957680664062,9.95030209961,1.0,0.0,0.0,0.0,1.0,0.0,0.0,0.0,1.0
1491900170540496597,635,1491900170538897326,,7.96598863602,-0.84396225214,90.0,0.00113700004295,1.0,0.0,0.0,0.0,1.0,0.0,0.0,0.0,1.0,-0.426829278469,2.19512200356,-0.12195122242,1.0,0.0,0.0,0.0,1.0,0.0,0.0,0.0,1.0,-0.579396801758,0.0526724365234,10.2759135254,1.0,0.0,0.0,0.0,1.0,0.0,0.0,0.0,1.0
1491900170564697746,636,1491900170559475089,,7.96609354019,-0.844512581825,90.0,0.0010890000267,1.0,0.0,0.0,0.0,1.0,0.0,0.0,0.0,1.0,-0.426829278469,2.07317066193,-0.304878056049,1.0,0.0,0.0,0.0,1.0,0.0,0.0,0.0,1.0,-0.636857641602,0.067037651051,10.5105452881,1.0,0.0,0.0,0.0,1.0,0.0,0.0,0.0,1.0
1491900170582038686,637,1491900170580503634,,7.96334028244,-0.844471514225,90.0,0.00114800001029,1.0,0.0,0.0,0.0,1.0,0.0,0.0,0.0,1.0,-0.304878056049,1.95121955872,-0.243902444839,1.0,0.0,0.0,0.0,1.0,0.0,0.0,0.0,1.0,-0.61770402832,0.076614453125,10.4004120117,1.0,0.0,0.0,0.0,1.0,0.0,0.0,0.0,1.0
1491900170607213690,638,1491900170600885824,,7.96444034576,-0.844421207905,90.0,0.00118400005158,1.0,0.0,0.0,0.0,1.0,0.0,0.0,0.0,1.0,-0.609756112099,2.37804889679,-0.243902444839,1.0,0.0,0.0,0.0,1.0,0.0,0.0,0.0,1.0,-0.588973571866,-0.0335188255255,10.1562034424,1.0,0.0,0.0,0.0,1.0,0.0,0.0,0.0,1.0
1491900170626784734,639,1491900170625086505,,7.96269607544,-0.842263817787,90.0,0.00375199993141,1.0,0.0,0.0,0.0,1.0,0.0,0.0,0.0,1.0,-0.304878056049,2.19512200356,-0.365853667259,1.0,0.0,0.0,0.0,1.0,0.0,0.0,0.0,1.0,-0.555454785156,0.0861912597656,10.2376062988,1.0,0.0,0.0,0.0,1.0,0.0,0.0,0.0,1.0
1491900170648954373,640,1491900170646534321,,7.9611787796,-0.84152173996,90.0,0.00153899996076,1.0,0.0,0.0,0.0,1.0,0.0,0.0,0.0,1.0,-0.243902444839,2.13414645195,-0.243902444839,1.0,0.0,0.0,0.0,1.0,0.0,0.0,0.0,1.0,-0.565031591797,0.0383072265625,10.3190091553,1.0,0.0,0.0,0.0,1.0,0.0,0.0,0.0,1.0
1491900170670964637,641,1491900170668384220,,7.96047639847,-0.84112906456,90.0,0.00107799994294,1.0,0.0,0.0,0.0,1.0,0.0,0.0,0.0,1.0,-0.487804889679,2.31707310677,-0.365853667259,1.0,0.0,0.0,0.0,1.0,0.0,0.0,0.0,1.0,-0.598550451572,0.0622492431641,10.2328178955,1.0,0.0,0.0,0.0,1.0,0.0,0.0,0.0,1.0
1491900170690205733,642,1491900170688688910,,7.96021938324,-0.841865122318,90.0,0.000996000017039,1.0,0.0,0.0,0.0,1.0,0.0,0.0,0.0,1.0,-0.243902444839,2.37804889679,-0.304878056049,1.0,0.0,0.0,0.0,1.0,0.0,0.0,0.0,1.0,-0.555454785156,0.110133276367,10.2328178955,1.0,0.0,0.0,0.0,1.0,0.0,0.0,0.0,1.0
1491900170711938809,643,1491900170710137351,,7.95913076401,-0.844788730145,90.0,0.00103100005072,1.0,0.0,0.0,0.0,1.0,0.0,0.0,0.0,1.0,-0.670731723309,2.01219511032,-0.304878056049,1.0,0.0,0.0,0.0,1.0,0.0,0.0,0.0,1.0,-0.579396801758,-0.0526724365234,10.2567599121,1.0,0.0,0.0,0.0,1.0,0.0,0.0,0.0,1.0
1491900170732948708,644,1491900170730697197,,7.9599237442,-0.843544483185,90.0,0.00120199995581,1.0,0.0,0.0,0.0,1.0,0.0,0.0,0.0,1.0,-0.609756112099,2.19512200356,-0.487804889679,1.0,0.0,0.0,0.0,1.0,0.0,0.0,0.0,1.0,-0.569819995117,0.0718260498047,10.3956236084,1.0,0.0,0.0,0.0,1.0,0.0,0.0,0.0,1.0
1491900170753320899,645,1491900170751141159,,7.95871162415,-0.842593550682,90.0,0.00118200003635,1.0,0.0,0.0,0.0,1.0,0.0,0.0,0.0,1.0,-0.365853667259,2.31707310677,-0.609756112099,1.0,0.0,0.0,0.0,1.0,0.0,0.0,0.0,1.0,-0.598550451572,0.0574608398438,10.285490332,1.0,0.0,0.0,0.0,1.0,0.0,0.0,0.0,1.0
1491900170773924548,646,1491900170771834756,,7.95665884018,-0.837052285671,90.0,0.00112599995919,1.0,0.0,0.0,0.0,1.0,0.0,0.0,0.0,1.0,-0.365853667259,2.31707310677,-0.243902444839,1.0,0.0,0.0,0.0,1.0,0.0,0.0,0.0,1.0,-0.60812722168,-0.0383072265625,10.3716815918,1.0,0.0,0.0,0.0,1.0,0.0,0.0,0.0,1.0
1491900170795115488,647,1491900170793657727,,7.95625448227,-0.841989278793,90.0,0.00200999993831,1.0,0.0,0.0,0.0,1.0,0.0,0.0,0.0,1.0,-0.487804889679,2.37804889679,-0.18292683363,1.0,0.0,0.0,0.0,1.0,0.0,0.0,0.0,1.0,-0.679953271484,-0.129286889648,10.1897222656,1.0,0.0,0.0,0.0,1.0,0.0,0.0,0.0,1.0
1491900170816445075,648,1491900170814439658,,7.95685815811,-0.837573707104,90.0,0.00118200003635,1.0,0.0,0.0,0.0,1.0,0.0,0.0,0.0,1.0,-0.243902444839,2.43902444839,-0.243902444839,1.0,0.0,0.0,0.0,1.0,0.0,0.0,0.0,1.0,-0.756567724609,0.220266552734,10.0317049561,1.0,0.0,0.0,0.0,1.0,0.0,0.0,0.0,1.0
1491900170837375807,649,1491900170835189192,,7.95406770706,-0.836269080639,90.0,0.00103100005072,1.0,0.0,0.0,0.0,1.0,0.0,0.0,0.0,1.0,-0.426829278469,2.25609779358,-0.304878056049,1.0,0.0,0.0,0.0,1.0,0.0,0.0,0.0,1.0,-0.699106884766,0.162805712891,10.314220752,1.0,0.0,0.0,0.0,1.0,0.0,0.0,0.0,1.0
1491900170857930653,650,1491900170856186955,,7.95267105103,-0.835380315781,90.0,0.000989999971353,1.0,0.0,0.0,0.0,1.0,0.0,0.0,0.0,1.0,-0.304878056049,2.37804889679,-0.609756112099,1.0,0.0,0.0,0.0,1.0,0.0,0.0,0.0,1.0,-0.593762048251,-0.067037651051,10.419565625,1.0,0.0,0.0,0.0,1.0,0.0,0.0,0.0,1.0
1491900170879491855,651,1491900170877349510,,7.95166826248,-0.838239014149,90.0,0.000969999993686,1.0,0.0,0.0,0.0,1.0,0.0,0.0,0.0,1.0,-0.670731723309,2.37804889679,-0.18292683363,1.0,0.0,0.0,0.0,1.0,0.0,0.0,0.0,1.0,-0.684741674805,0.0478840332031,9.82101520996,1.0,0.0,0.0,0.0,1.0,0.0,0.0,0.0,1.0
1491900170900171389,652,1491900170898027795,,7.95315885544,-0.837675392628,90.0,0.00110999995377,1.0,0.0,0.0,0.0,1.0,0.0,0.0,0.0,1.0,-0.365853667259,2.68292689323,-0.18292683363,1.0,0.0,0.0,0.0,1.0,0.0,0.0,0.0,1.0,-0.598550451572,0.076614453125,10.0364933594,1.0,0.0,0.0,0.0,1.0,0.0,0.0,0.0,1.0
1491900170926070663,653,1491900170919374725,,7.95514345169,-0.836034595966,90.0,0.000975999981165,1.0,0.0,0.0,0.0,1.0,0.0,0.0,0.0,1.0,-0.487804889679,2.07317066193,-0.243902444839,1.0,0.0,0.0,0.0,1.0,0.0,0.0,0.0,1.0,-0.569819995117,0.0287304199219,10.4578728516,1.0,0.0,0.0,0.0,1.0,0.0,0.0,0.0,1.0
1491900170946722541,654,1491900170939979624,,7.95415449142,-0.835404455662,90.0,0.00114800001029,1.0,0.0,0.0,0.0,1.0,0.0,0.0,0.0,1.0,-0.18292683363,2.31707310677,-0.487804889679,1.0,0.0,0.0,0.0,1.0,0.0,0.0,0.0,1.0,-0.536301208408,0.0430956298828,10.524910498,1.0,0.0,0.0,0.0,1.0,0.0,0.0,0.0,1.0
1491900170968241451,655,1491900170960964002,,7.95369672775,-0.838192939758,90.0,0.000974000024144,1.0,0.0,0.0,0.0,1.0,0.0,0.0,0.0,1.0,-0.12195122242,2.07317066193,-0.365853667259,1.0,0.0,0.0,0.0,1.0,0.0,0.0,0.0,1.0,-0.641646044922,-0.0287304199219,10.2136642822,1.0,0.0,0.0,0.0,1.0,0.0,0.0,0.0,1.0
1491900170987337652,656,1491900170981665151,,7.95503997803,-0.83856600523,90.0,0.000969999993686,1.0,0.0,0.0,0.0,1.0,0.0,0.0,0.0,1.0,-0.548780500889,2.19512200356,-0.304878056049,1.0,0.0,0.0,0.0,1.0,0.0,0.0,0.0,1.0,-0.627280834961,-0.119710083008,10.1274730225,1.0,0.0,0.0,0.0,1.0,0.0,0.0,0.0,1.0
1491900171011240051,657,1491900171007360936,,7.95516586304,-0.832995831966,90.0,0.00755500001833,1.0,0.0,0.0,0.0,1.0,0.0,0.0,0.0,1.0,-0.609756112099,2.43902444839,-0.365853667259,1.0,0.0,0.0,0.0,1.0,0.0,0.0,0.0,1.0,-0.622492431641,0.0335188255255,10.1753570557,1.0,0.0,0.0,0.0,1.0,0.0,0.0,0.0,1.0
1491900171032610835,658,1491900171028641199,,7.95595741272,-0.836071014404,90.0,0.00178599997889,1.0,0.0,0.0,0.0,1.0,0.0,0.0,0.0,1.0,-0.609756112099,2.13414645195,-0.487804889679,1.0,0.0,0.0,0.0,1.0,0.0,0.0,0.0,1.0,-0.521935925381,-0.0191536132812,10.2902787354,1.0,0.0,0.0,0.0,1.0,0.0,0.0,0.0,1.0
1491900171052803546,659,1491900171050587348,,7.95311403275,-0.83596342802,90.0,0.00158299994655,1.0,0.0,0.0,0.0,1.0,0.0,0.0,0.0,1.0,-0.365853667259,2.25609779358,-0.304878056049,1.0,0.0,0.0,0.0,1.0,0.0,0.0,0.0,1.0,-0.497993945312,0.0478840332031,10.0748005859,1.0,0.0,0.0,0.0,1.0,0.0,0.0,0.0,1.0
1491900171074191518,660,1491900171072107768,,7.95266056061,-0.835848689079,90.0,0.000984000042081,1.0,0.0,0.0,0.0,1.0,0.0,0.0,0.0,1.0,-0.426829278469,2.31707310677,-0.487804889679,1.0,0.0,0.0,0.0,1.0,0.0,0.0,0.0,1.0,-0.493205541992,-0.0909796630859,10.3812583984,1.0,0.0,0.0,0.0,1.0,0.0,0.0,0.0,1.0
1491900171094827146,661,1491900171092769854,,7.95196437836,-0.836903452873,90.0,0.00106799998321,1.0,0.0,0.0,0.0,1.0,0.0,0.0,0.0,1.0,-0.304878056049,2.07317066193,-0.243902444839,1.0,0.0,0.0,0.0,1.0,0.0,0.0,0.0,1.0,-0.584185168546,-0.119710083008,10.3237975586,1.0,0.0,0.0,0.0,1.0,0.0,0.0,0.0,1.0
1491900171116055535,662,1491900171114075482,,7.95205545425,-0.838684678078,90.0,0.00119400001131,1.0,0.0,0.0,0.0,1.0,0.0,0.0,0.0,1.0,-0.365853667259,2.31707310677,-0.304878056049,1.0,0.0,0.0,0.0,1.0,0.0,0.0,0.0,1.0,-0.708683691406,0.0143652099609,10.0700121826,1.0,0.0,0.0,0.0,1.0,0.0,0.0,0.0,1.0
1491900171137411111,663,1491900171135401788,,7.95385742188,-0.835792303085,90.0,0.000991999986582,1.0,0.0,0.0,0.0,1.0,0.0,0.0,0.0,1.0,-0.0609756112099,2.31707310677,-0.609756112099,1.0,0.0,0.0,0.0,1.0,0.0,0.0,0.0,1.0,-0.723048901367,-0.0143652099609,10.3764699951,1.0,0.0,0.0,0.0,1.0,0.0,0.0,0.0,1.0
1491900171158120333,664,1491900171156154551,,7.95215272903,-0.83641320467,90.0,0.000992999994196,1.0,0.0,0.0,0.0,1.0,0.0,0.0,0.0,1.0,-0.365853667259,2.43902444839,-0.487804889679,1.0,0.0,0.0,0.0,1.0,0.0,0.0,0.0,1.0,-0.521935925381,-0.0287304199219,10.4722380615,1.0,0.0,0.0,0.0,1.0,0.0,0.0,0.0,1.0
1491900171179331534,665,1491900171177315335,,7.9523229599,-0.835783600807,90.0,0.000984000042081,1.0,0.0,0.0,0.0,1.0,0.0,0.0,0.0,1.0,-0.548780500889,2.31707310677,-0.12195122242,1.0,0.0,0.0,0.0,1.0,0.0,0.0,0.0,1.0,-0.588973571866,0.105344873047,9.95509050293,1.0,0.0,0.0,0.0,1.0,0.0,0.0,0.0,1.0
1491900171200449974,666,1491900171198428516,,7.95303583145,-0.832743048668,90.0,0.000980000011623,1.0,0.0,0.0,0.0,1.0,0.0,0.0,0.0,1.0,-0.365853667259,2.31707310677,-0.365853667259,1.0,0.0,0.0,0.0,1.0,0.0,0.0,0.0,1.0,-0.675164868164,0.0622492431641,10.299855542,1.0,0.0,0.0,0.0,1.0,0.0,0.0,0.0,1.0
1491900171221327269,667,1491900171219325550,,7.95562124252,-0.832265436649,90.0,0.000977999996394,1.0,0.0,0.0,0.0,1.0,0.0,0.0,0.0,1.0,-0.426829278469,2.37804889679,-0.609756112099,1.0,0.0,0.0,0.0,1.0,0.0,0.0,0.0,1.0,-0.675164868164,0.0478840332031,10.3860468018,1.0,0.0,0.0,0.0,1.0,0.0,0.0,0.0,1.0
1491900171245991960,668,1491900171240083834,,7.95822286606,-0.831349313259,90.0,0.000965000013821,1.0,0.0,0.0,0.0,1.0,0.0,0.0,0.0,1.0,-0.548780500889,2.31707310677,-0.670731723309,1.0,0.0,0.0,0.0,1.0,0.0,0.0,0.0,1.0,-0.61770402832,0.0909796630859,10.4435076416,1.0,0.0,0.0,0.0,1.0,0.0,0.0,0.0,1.0
1491900171263368056,669,1491900171261334514,,7.95894956589,-0.83362609148,90.0,0.000960999983363,1.0,0.0,0.0,0.0,1.0,0.0,0.0,0.0,1.0,-0.548780500889,2.07317066193,-0.18292683363,1.0,0.0,0.0,0.0,1.0,0.0,0.0,0.0,1.0,-0.531512805087,-0.0239420166016,10.1418382324,1.0,0.0,0.0,0.0,1.0,0.0,0.0,0.0,1.0
1491900171283615611,670,1491900171281843267,,7.95801401138,-0.833545506001,90.0,0.000977999996394,1.0,0.0,0.0,0.0,1.0,0.0,0.0,0.0,1.0,-0.548780500889,2.31707310677,-0.426829278469,1.0,0.0,0.0,0.0,1.0,0.0,0.0,0.0,1.0,-0.61770402832,0.0,10.060435376,1.0,0.0,0.0,0.0,1.0,0.0,0.0,0.0,1.0
1491900171305520562,671,1491900171303131083,,7.96026659012,-0.835880219936,90.0,0.00099400000181,1.0,0.0,0.0,0.0,1.0,0.0,0.0,0.0,1.0,-0.243902444839,2.37804889679,-0.243902444839,1.0,0.0,0.0,0.0,1.0,0.0,0.0,0.0,1.0,-0.651222851562,-0.0191536132812,10.0939541992,1.0,0.0,0.0,0.0,1.0,0.0,0.0,0.0,1.0
1491900171325765878,672,1491900171323904680,,7.96055221558,-0.839171826839,90.0,0.0012150000548,1.0,0.0,0.0,0.0,1.0,0.0,0.0,0.0,1.0,-0.426829278469,1.8902438879,-0.18292683363,1.0,0.0,0.0,0.0,1.0,0.0,0.0,0.0,1.0,-0.699106884766,0.15322890625,10.3046439453,1.0,0.0,0.0,0.0,1.0,0.0,0.0,0.0,1.0
1491900171346261037,673,1491900171344479266,,7.9597864151,-0.837770879269,90.0,0.00120199995581,1.0,0.0,0.0,0.0,1.0,0.0,0.0,0.0,1.0,-0.243902444839,2.25609779358,-0.548780500889,1.0,0.0,0.0,0.0,1.0,0.0,0.0,0.0,1.0,-0.660799658203,0.076614453125,10.299855542,1.0,0.0,0.0,0.0,1.0,0.0,0.0,0.0,1.0
1491900171367589946,674,1491900171366112238,,7.95806598663,-0.841768443584,90.0,0.00115100003313,1.0,0.0,0.0,0.0,1.0,0.0,0.0,0.0,1.0,-0.426829278469,2.07317066193,-0.304878056049,1.0,0.0,0.0,0.0,1.0,0.0,0.0,0.0,1.0,-0.560243188477,-0.0335188255255,10.285490332,1.0,0.0,0.0,0.0,1.0,0.0,0.0,0.0,1.0
1491900171388524689,675,1491900171387051824,,7.956366539,-0.839883983135,90.0,0.00118100002874,1.0,0.0,0.0,0.0,1.0,0.0,0.0,0.0,1.0,-0.304878056049,2.25609779358,-0.304878056049,1.0,0.0,0.0,0.0,1.0,0.0,0.0,0.0,1.0,-0.497993945312,0.0622492431641,10.2615483154,1.0,0.0,0.0,0.0,1.0,0.0,0.0,0.0,1.0
1491900171410384380,676,1491900171407617817,,7.95355653763,-0.842195153236,90.0,0.00121300003957,1.0,0.0,0.0,0.0,1.0,0.0,0.0,0.0,1.0,-0.670731723309,2.43902444839,-0.243902444839,1.0,0.0,0.0,0.0,1.0,0.0,0.0,0.0,1.0,-0.512359155273,0.076614453125,10.2136642822,1.0,0.0,0.0,0.0,1.0,0.0,0.0,0.0,1.0
1491900171431638862,677,1491900171429323549,,7.9540772438,-0.842583358288,90.0,0.00128700002097,1.0,0.0,0.0,0.0,1.0,0.0,0.0,0.0,1.0,-0.609756112099,2.25609779358,-0.18292683363,1.0,0.0,0.0,0.0,1.0,0.0,0.0,0.0,1.0,-0.588973571866,0.0239420166016,10.3908352051,1.0,0.0,0.0,0.0,1.0,0.0,0.0,0.0,1.0
1491900171452235323,678,1491900171450300219,,7.95192718506,-0.846136987209,90.0,0.00118300004397,1.0,0.0,0.0,0.0,1.0,0.0,0.0,0.0,1.0,-0.487804889679,2.13414645195,-0.304878056049,1.0,0.0,0.0,0.0,1.0,0.0,0.0,0.0,1.0,-0.541089611728,-0.0622492431641,10.1226846191,1.0,0.0,0.0,0.0,1.0,0.0,0.0,0.0,1.0
1491900171475076785,679,1491900171471765170,,7.95391082764,-0.846689224243,90.0,0.00102399999741,1.0,0.0,0.0,0.0,1.0,0.0,0.0,0.0,1.0,-0.487804889679,2.19512200356,-0.548780500889,1.0,0.0,0.0,0.0,1.0,0.0,0.0,0.0,1.0,-0.656011254883,0.105344873047,10.3573163818,1.0,0.0,0.0,0.0,1.0,0.0,0.0,0.0,1.0
1491900171494058871,680,1491900171492221475,,7.95721673965,-0.845543682575,90.0,0.0012450000504,1.0,0.0,0.0,0.0,1.0,0.0,0.0,0.0,1.0,-0.243902444839,2.43902444839,-0.426829278469,1.0,0.0,0.0,0.0,1.0,0.0,0.0,0.0,1.0,-0.526724328702,-0.0191536132812,10.3285859619,1.0,0.0,0.0,0.0,1.0,0.0,0.0,0.0,1.0
1491900171515339603,681,1491900171513521843,,7.9586520195,-0.845196425915,90.0,0.000981000019237,1.0,0.0,0.0,0.0,1.0,0.0,0.0,0.0,1.0,-0.853658556938,2.62195134163,-0.18292683363,1.0,0.0,0.0,0.0,1.0,0.0,0.0,0.0,1.0,-0.636857641602,-0.134075302102,10.1562034424,1.0,0.0,0.0,0.0,1.0,0.0,0.0,0.0,1.0
1491900171536576325,682,1491900171534607679,,7.95737600327,-0.846819639206,90.0,0.000996000017039,1.0,0.0,0.0,0.0,1.0,0.0,0.0,0.0,1.0,-0.304878056049,2.31707310677,-0.426829278469,1.0,0.0,0.0,0.0,1.0,0.0,0.0,0.0,1.0,-0.799663354492,0.196324536133,10.2280294922,1.0,0.0,0.0,0.0,1.0,0.0,0.0,0.0,1.0
1491900171558334349,683,1491900171556288984,,7.95853757858,-0.844168245792,90.0,0.00124999997206,1.0,0.0,0.0,0.0,1.0,0.0,0.0,0.0,1.0,-0.18292683363,2.43902444839,-0.670731723309,1.0,0.0,0.0,0.0,1.0,0.0,0.0,0.0,1.0,-0.521935925381,0.0287304199219,10.4578728516,1.0,0.0,0.0,0.0,1.0,0.0,0.0,0.0,1.0
1491900171579906800,684,1491900171577510029,,7.95662355423,-0.842942774296,90.0,0.000973000016529,1.0,0.0,0.0,0.0,1.0,0.0,0.0,0.0,1.0,-0.365853667259,2.01219511032,-0.243902444839,1.0,0.0,0.0,0.0,1.0,0.0,0.0,0.0,1.0,-0.703895288086,-0.129286889648,10.0221281494,1.0,0.0,0.0,0.0,1.0,0.0,0.0,0.0,1.0
1491900171601235762,685,1491900171598823886,,7.95580053329,-0.840747833252,90.0,0.00119099998847,1.0,0.0,0.0,0.0,1.0,0.0,0.0,0.0,1.0,-0.0609756112099,2.13414645195,-0.487804889679,1.0,0.0,0.0,0.0,1.0,0.0,0.0,0.0,1.0,-0.627280834961,0.0718260498047,10.299855542,1.0,0.0,0.0,0.0,1.0,0.0,0.0,0.0,1.0
1491900171624237171,686,1491900171619214358,,7.95388936996,-0.840745210648,90.0,0.0010379999876,1.0,0.0,0.0,0.0,1.0,0.0,0.0,0.0,1.0,-0.0609756112099,1.8292683363,-0.426829278469,1.0,0.0,0.0,0.0,1.0,0.0,0.0,0.0,1.0,-0.627280834961,0.0478840332031,10.4961800781,1.0,0.0,0.0,0.0,1.0,0.0,0.0,0.0,1.0
1491900171644935768,687,1491900171640118319,,7.95353031158,-0.840523958206,90.0,0.000984000042081,1.0,0.0,0.0,0.0,1.0,0.0,0.0,0.0,1.0,-0.548780500889,2.19512200356,-0.304878056049,1.0,0.0,0.0,0.0,1.0,0.0,0.0,0.0,1.0,-0.598550451572,-0.00478840332031,10.3812583984,1.0,0.0,0.0,0.0,1.0,0.0,0.0,0.0,1.0
1491900171666048219,688,1491900171660678843,,7.95254516602,-0.841658294201,90.0,0.000972000008915,1.0,0.0,0.0,0.0,1.0,0.0,0.0,0.0,1.0,-0.243902444839,2.13414645195,-0.609756112099,1.0,0.0,0.0,0.0,1.0,0.0,0.0,0.0,1.0,-0.550666381836,-0.0143652099609,10.1897222656,1.0,0.0,0.0,0.0,1.0,0.0,0.0,0.0,1.0
1491900171685733847,689,1491900171682112753,,7.95271682739,-0.841722905636,90.0,0.00110300001688,1.0,0.0,0.0,0.0,1.0,0.0,0.0,0.0,1.0,-0.304878056049,2.5,-0.243902444839,1.0,0.0,0.0,0.0,1.0,0.0,0.0,0.0,1.0,-0.684741674805,-0.0574608398438,10.1753570557,1.0,0.0,0.0,0.0,1.0,0.0,0.0,0.0,1.0
1491900171706858902,690,1491900171703815672,,7.95051670074,-0.841615080833,90.0,0.0013119999785,1.0,0.0,0.0,0.0,1.0,0.0,0.0,0.0,1.0,-0.243902444839,2.31707310677,-0.243902444839,1.0,0.0,0.0,0.0,1.0,0.0,0.0,0.0,1.0,-0.584185168546,0.0622492431641,10.3573163818,1.0,0.0,0.0,0.0,1.0,0.0,0.0,0.0,1.0
1491900171727470155,691,1491900171724836353,,7.9469203949,-0.840426325798,90.0,0.00136899994686,1.0,0.0,0.0,0.0,1.0,0.0,0.0,0.0,1.0,-0.548780500889,1.8292683363,-0.548780500889,1.0,0.0,0.0,0.0,1.0,0.0,0.0,0.0,1.0,-0.584185168546,0.0718260498047,10.299855542,1.0,0.0,0.0,0.0,1.0,0.0,0.0,0.0,1.0
1491900171747514221,692,1491900171745554168,,7.94782781601,-0.838132441044,90.0,0.00129100005142,1.0,0.0,0.0,0.0,1.0,0.0,0.0,0.0,1.0,-0.243902444839,2.31707310677,-0.243902444839,1.0,0.0,0.0,0.0,1.0,0.0,0.0,0.0,1.0,-0.555454785156,-0.0383072265625,10.2328178955,1.0,0.0,0.0,0.0,1.0,0.0,0.0,0.0,1.0
1491900171769746880,693,1491900171767081880,,7.95186948776,-0.841278791428,90.0,0.00138699996751,1.0,0.0,0.0,0.0,1.0,0.0,0.0,0.0,1.0,-0.548780500889,2.31707310677,0.0609756112099,1.0,0.0,0.0,0.0,1.0,0.0,0.0,0.0,1.0,-0.651222851562,0.0383072265625,10.1514150391,1.0,0.0,0.0,0.0,1.0,0.0,0.0,0.0,1.0
1491900171789271258,694,1491900171787244643,,7.95220804214,-0.839119970798,90.0,0.00118000002112,1.0,0.0,0.0,0.0,1.0,0.0,0.0,0.0,1.0,-0.426829278469,2.62195134163,-0.18292683363,1.0,0.0,0.0,0.0,1.0,0.0,0.0,0.0,1.0,-0.565031591797,0.0287304199219,10.2088758789,1.0,0.0,0.0,0.0,1.0,0.0,0.0,0.0,1.0
1491900171810125115,695,1491900171808454229,,7.95016336441,-0.837102591991,90.0,0.00106699997559,1.0,0.0,0.0,0.0,1.0,0.0,0.0,0.0,1.0,-0.548780500889,2.31707310677,-0.487804889679,1.0,0.0,0.0,0.0,1.0,0.0,0.0,0.0,1.0,-0.627280834961,0.0239420166016,10.3190091553,1.0,0.0,0.0,0.0,1.0,0.0,0.0,0.0,1.0
1491900171833701577,696,1491900171830147253,,7.95212697983,-0.838985323906,90.0,0.00110700004734,1.0,0.0,0.0,0.0,1.0,0.0,0.0,0.0,1.0,-0.365853667259,2.13414645195,-0.365853667259,1.0,0.0,0.0,0.0,1.0,0.0,0.0,0.0,1.0,-0.593762048251,0.00478840332031,10.2902787354,1.0,0.0,0.0,0.0,1.0,0.0,0.0,0.0,1.0
1491900171854447413,697,1491900171850377256,,7.9510512352,-0.839793980122,90.0,0.0014230000088,1.0,0.0,0.0,0.0,1.0,0.0,0.0,0.0,1.0,-0.304878056049,2.19512200356,-0.426829278469,1.0,0.0,0.0,0.0,1.0,0.0,0.0,0.0,1.0,-0.632069238281,0.105344873047,10.180145459,1.0,0.0,0.0,0.0,1.0,0.0,0.0,0.0,1.0
1491900171873184291,698,1491900171871452155,,7.94987201691,-0.837893664837,90.0,0.00117499998305,1.0,0.0,0.0,0.0,1.0,0.0,0.0,0.0,1.0,-0.548780500889,2.25609779358,-0.426829278469,1.0,0.0,0.0,0.0,1.0,0.0,0.0,0.0,1.0,-0.555454785156,0.0143652099609,10.2423947021,1.0,0.0,0.0,0.0,1.0,0.0,0.0,0.0,1.0
1491900171895107263,699,1491900171892092471,,7.94343328476,-0.840291321278,90.0,0.0014159999555,1.0,0.0,0.0,0.0,1.0,0.0,0.0,0.0,1.0,-0.426829278469,2.25609779358,-0.670731723309,1.0,0.0,0.0,0.0,1.0,0.0,0.0,0.0,1.0,-0.536301208408,-0.0143652099609,10.2950671387,1.0,0.0,0.0,0.0,1.0,0.0,0.0,0.0,1.0
1491900171915359505,700,1491900171912568567,,7.94281196594,-0.839581787586,90.0,0.00105800002348,1.0,0.0,0.0,0.0,1.0,0.0,0.0,0.0,1.0,-0.426829278469,2.37804889679,-0.548780500889,1.0,0.0,0.0,0.0,1.0,0.0,0.0,0.0,1.0,-0.531512805087,-0.15322890625,10.3860468018,1.0,0.0,0.0,0.0,1.0,0.0,0.0,0.0,1.0
1491900171935428206,701,1491900171933487737,,7.94339036942,-0.836452424526,90.0,0.00119199999608,1.0,0.0,0.0,0.0,1.0,0.0,0.0,0.0,1.0,-0.426829278469,2.19512200356,-0.0609756112099,1.0,0.0,0.0,0.0,1.0,0.0,0.0,0.0,1.0,-0.632069238281,-0.124498486328,10.1131078125,1.0,0.0,0.0,0.0,1.0,0.0,0.0,0.0,1.0
1491900171957025657,702,1491900171954770188,,7.94494867325,-0.836008787155,90.0,0.00105600000825,1.0,0.0,0.0,0.0,1.0,0.0,0.0,0.0,1.0,-0.426829278469,2.07317066193,-0.365853667259,1.0,0.0,0.0,0.0,1.0,0.0,0.0,0.0,1.0,-0.656011254883,0.124498486328,10.1322614258,1.0,0.0,0.0,0.0,1.0,0.0,0.0,0.0,1.0
1491900171977575504,703,1491900171975628368,,7.94344377518,-0.835094451904,90.0,0.00132000003941,1.0,0.0,0.0,0.0,1.0,0.0,0.0,0.0,1.0,-0.243902444839,2.19512200356,-0.426829278469,1.0,0.0,0.0,0.0,1.0,0.0,0.0,0.0,1.0,-0.579396801758,-0.0335188255255,10.405200415,1.0,0.0,0.0,0.0,1.0,0.0,0.0,0.0,1.0
1491900172001231185,704,1491900171998970611,,7.94467973709,-0.836114704609,90.0,0.00453000003472,1.0,0.0,0.0,0.0,1.0,0.0,0.0,0.0,1.0,-0.426829278469,2.13414645195,-0.426829278469,1.0,0.0,0.0,0.0,1.0,0.0,0.0,0.0,1.0,-0.675164868164,0.076614453125,10.4722380615,1.0,0.0,0.0,0.0,1.0,0.0,0.0,0.0,1.0
1491900172024593375,705,1491900172019847646,,7.94819974899,-0.836809933186,90.0,0.00101999996696,1.0,0.0,0.0,0.0,1.0,0.0,0.0,0.0,1.0,-0.304878056049,2.31707310677,-0.365853667259,1.0,0.0,0.0,0.0,1.0,0.0,0.0,0.0,1.0,-0.684741674805,0.114921679688,10.4913916748,1.0,0.0,0.0,0.0,1.0,0.0,0.0,0.0,1.0
1491900172043702493,706,1491900172040166346,,7.95070552826,-0.837996900082,90.0,0.00101300003007,1.0,0.0,0.0,0.0,1.0,0.0,0.0,0.0,1.0,-0.365853667259,2.31707310677,-0.426829278469,1.0,0.0,0.0,0.0,1.0,0.0,0.0,0.0,1.0,-0.593762048251,-0.0383072265625,10.3237975586,1.0,0.0,0.0,0.0,1.0,0.0,0.0,0.0,1.0
1491900172063546714,707,1491900172060693589,,7.9537358284,-0.839676678181,90.0,0.00107500003651,1.0,0.0,0.0,0.0,1.0,0.0,0.0,0.0,1.0,-0.243902444839,2.37804889679,-0.18292683363,1.0,0.0,0.0,0.0,1.0,0.0,0.0,0.0,1.0,-0.526724328702,0.0861912597656,10.2759135254,1.0,0.0,0.0,0.0,1.0,0.0,0.0,0.0,1.0
1491900172084692759,708,1491900172081817863,,7.9549407959,-0.841833531857,90.0,0.00107500003651,1.0,0.0,0.0,0.0,1.0,0.0,0.0,0.0,1.0,-0.548780500889,2.5,-0.365853667259,1.0,0.0,0.0,0.0,1.0,0.0,0.0,0.0,1.0,-0.656011254883,-0.0909796630859,10.1418382324,1.0,0.0,0.0,0.0,1.0,0.0,0.0,0.0,1.0
1491900172108294950,709,1491900172105147033,,7.95685195923,-0.83916914463,90.0,0.0029490001034,1.0,0.0,0.0,0.0,1.0,0.0,0.0,0.0,1.0,-0.304878056049,2.25609779358,-0.365853667259,1.0,0.0,0.0,0.0,1.0,0.0,0.0,0.0,1.0,-0.612915625,0.0478840332031,10.1945106689,1.0,0.0,0.0,0.0,1.0,0.0,0.0,0.0,1.0
1491900172129489901,710,1491900172126863338,,7.9543762207,-0.838320851326,90.0,0.00179200002458,1.0,0.0,0.0,0.0,1.0,0.0,0.0,0.0,1.0,-0.487804889679,2.25609779358,-0.426829278469,1.0,0.0,0.0,0.0,1.0,0.0,0.0,0.0,1.0,-0.584185168546,-0.0239420166016,10.285490332,1.0,0.0,0.0,0.0,1.0,0.0,0.0,0.0,1.0
1491900172150308602,711,1491900172147667143,,7.95379972458,-0.836511492729,90.0,0.00108800001908,1.0,0.0,0.0,0.0,1.0,0.0,0.0,0.0,1.0,-0.487804889679,2.07317066193,-0.304878056049,1.0,0.0,0.0,0.0,1.0,0.0,0.0,0.0,1.0,-0.675164868164,0.0526724365234,10.2807019287,1.0,0.0,0.0,0.0,1.0,0.0,0.0,0.0,1.0
1491900172173873345,712,1491900172170501313,,7.94768667221,-0.837638556957,90.0,0.00142600003164,1.0,0.0,0.0,0.0,1.0,0.0,0.0,0.0,1.0,-0.365853667259,1.8292683363,-0.304878056049,1.0,0.0,0.0,0.0,1.0,0.0,0.0,0.0,1.0,-0.45489831543,-0.0335188255255,10.1562034424,1.0,0.0,0.0,0.0,1.0,0.0,0.0,0.0,1.0
1491900172194377723,713,1491900172191347254,,7.93875312805,-0.835748493671,90.0,0.00157700001728,1.0,0.0,0.0,0.0,1.0,0.0,0.0,0.0,1.0,-0.487804889679,1.8902438879,-0.12195122242,1.0,0.0,0.0,0.0,1.0,0.0,0.0,0.0,1.0,-0.555454785156,0.15322890625,10.3237975586,1.0,0.0,0.0,0.0,1.0,0.0,0.0,0.0,1.0
1491900172214906320,714,1491900172211871788,,7.92366981506,-0.83730250597,90.0,0.00117099995259,1.0,0.0,0.0,0.0,1.0,0.0,0.0,0.0,1.0,-0.548780500889,1.95121955872,-0.304878056049,1.0,0.0,0.0,0.0,1.0,0.0,0.0,0.0,1.0,-0.512359155273,-0.0239420166016,10.314220752,1.0,0.0,0.0,0.0,1.0,0.0,0.0,0.0,1.0
1491900172234714812,715,1491900172232591010,,7.9097366333,-0.833959579468,90.0,0.00141400005668,1.0,0.0,0.0,0.0,1.0,0.0,0.0,0.0,1.0,-0.731707334518,2.19512200356,-0.243902444839,1.0,0.0,0.0,0.0,1.0,0.0,0.0,0.0,1.0,-0.521935925381,-0.181959326172,10.3285859619,1.0,0.0,0.0,0.0,1.0,0.0,0.0,0.0,1.0
1491900172256287836,716,1491900172253888513,,7.90625143051,-0.836271286011,90.0,0.00127100001555,1.0,0.0,0.0,0.0,1.0,0.0,0.0,0.0,1.0,-0.487804889679,2.37804889679,0.18292683363,1.0,0.0,0.0,0.0,1.0,0.0,0.0,0.0,1.0,-0.60812722168,-0.110133276367,9.97903251953,1.0,0.0,0.0,0.0,1.0,0.0,0.0,0.0,1.0
1491900172277184193,717,1491900172275161329,,7.90483379364,-0.838717401028,90.0,0.00117399997544,1.0,0.0,0.0,0.0,1.0,0.0,0.0,0.0,1.0,-0.304878056049,2.5,-0.548780500889,1.0,0.0,0.0,0.0,1.0,0.0,0.0,0.0,1.0,-0.641646044922,0.134075302102,10.1035310059,1.0,0.0,0.0,0.0,1.0,0.0,0.0,0.0,1.0
1491900172297689196,718,1491900172295607530,,7.90603780746,-0.835064172745,90.0,0.00207699998282,1.0,0.0,0.0,0.0,1.0,0.0,0.0,0.0,1.0,-0.243902444839,2.5,-0.670731723309,1.0,0.0,0.0,0.0,1.0,0.0,0.0,0.0,1.0,-0.689530078125,0.167594116211,10.4004120117,1.0,0.0,0.0,0.0,1.0,0.0,0.0,0.0,1.0
1491900172318168470,719,1491900172316134512,,7.91371536255,-0.835824847221,90.0,0.00138599995989,1.0,0.0,0.0,0.0,1.0,0.0,0.0,0.0,1.0,-0.365853667259,2.43902444839,-0.12195122242,1.0,0.0,0.0,0.0,1.0,0.0,0.0,0.0,1.0,-0.60812722168,-0.0814028564453,10.4818148682,1.0,0.0,0.0,0.0,1.0,0.0,0.0,0.0,1.0
1491900172339517432,720,1491900172337475869,,7.91834688187,-0.837819933891,90.0,0.00101600005291,1.0,0.0,0.0,0.0,1.0,0.0,0.0,0.0,1.0,-0.12195122242,2.43902444839,-0.12195122242,1.0,0.0,0.0,0.0,1.0,0.0,0.0,0.0,1.0,-0.708683691406,0.0909796630859,10.1418382324,1.0,0.0,0.0,0.0,1.0,0.0,0.0,0.0,1.0
1491900172361120664,721,1491900172358632799,,7.92100191116,-0.839008867741,90.0,0.00102399999741,1.0,0.0,0.0,0.0,1.0,0.0,0.0,0.0,1.0,-0.426829278469,2.25609779358,-0.243902444839,1.0,0.0,0.0,0.0,1.0,0.0,0.0,0.0,1.0,-0.622492431641,0.0574608398438,10.2136642822,1.0,0.0,0.0,0.0,1.0,0.0,0.0,0.0,1.0
1491900172382211709,722,1491900172379568219,,7.92371940613,-0.84178853035,90.0,0.000959000026342,1.0,0.0,0.0,0.0,1.0,0.0,0.0,0.0,1.0,-0.426829278469,2.13414645195,-0.365853667259,1.0,0.0,0.0,0.0,1.0,0.0,0.0,0.0,1.0,-0.675164868164,0.119710083008,10.4722380615,1.0,0.0,0.0,0.0,1.0,0.0,0.0,0.0,1.0
1491900172402763431,723,1491900172400648170,,7.92053985596,-0.841117501259,90.0,0.0011419999646,1.0,0.0,0.0,0.0,1.0,0.0,0.0,0.0,1.0,-0.548780500889,2.01219511032,-0.426829278469,1.0,0.0,0.0,0.0,1.0,0.0,0.0,0.0,1.0,-0.603338854892,0.0287304199219,10.2902787354,1.0,0.0,0.0,0.0,1.0,0.0,0.0,0.0,1.0
1491900172425922861,724,1491900172421816090,,7.91388177872,-0.839515209198,90.0,0.000986999948509,1.0,0.0,0.0,0.0,1.0,0.0,0.0,0.0,1.0,-0.487804889679,2.13414645195,-0.18292683363,1.0,0.0,0.0,0.0,1.0,0.0,0.0,0.0,1.0,-0.579396801758,-0.0909796630859,10.1945106689,1.0,0.0,0.0,0.0,1.0,0.0,0.0,0.0,1.0
1491900172445049166,725,1491900172442504165,,7.90872955322,-0.837808072567,90.0,0.00113999994937,1.0,0.0,0.0,0.0,1.0,0.0,0.0,0.0,1.0,-0.365853667259,2.31707310677,-0.304878056049,1.0,0.0,0.0,0.0,1.0,0.0,0.0,0.0,1.0,-0.632069238281,0.0287304199219,9.99818613281,1.0,0.0,0.0,0.0,1.0,0.0,0.0,0.0,1.0
1491900172468472190,726,1491900172464403075,,7.89976072311,-0.836280763149,90.0,0.0014380000066,1.0,0.0,0.0,0.0,1.0,0.0,0.0,0.0,1.0,-0.18292683363,1.8902438879,-0.487804889679,1.0,0.0,0.0,0.0,1.0,0.0,0.0,0.0,1.0,-0.531512805087,0.076614453125,10.1274730225,1.0,0.0,0.0,0.0,1.0,0.0,0.0,0.0,1.0
1491900172487992922,727,1491900172484962974,,7.89800071716,-0.838691353798,90.0,0.00124600005802,1.0,0.0,0.0,0.0,1.0,0.0,0.0,0.0,1.0,-0.12195122242,2.13414645195,-0.18292683363,1.0,0.0,0.0,0.0,1.0,0.0,0.0,0.0,1.0,-0.641646044922,0.0478840332031,10.3956236084,1.0,0.0,0.0,0.0,1.0,0.0,0.0,0.0,1.0
1491900172508487925,728,1491900172505935268,,7.89557027817,-0.839824557304,90.0,0.00111399998423,1.0,0.0,0.0,0.0,1.0,0.0,0.0,0.0,1.0,-0.304878056049,2.01219511032,-0.426829278469,1.0,0.0,0.0,0.0,1.0,0.0,0.0,0.0,1.0,-0.612915625,0.00957680664062,10.3190091553,1.0,0.0,0.0,0.0,1.0,0.0,0.0,0.0,1.0
1491900172529251991,729,1491900172526687980,,7.89131641388,-0.839312016964,90.0,0.00127699994482,1.0,0.0,0.0,0.0,1.0,0.0,0.0,0.0,1.0,-0.365853667259,2.07317066193,-0.18292683363,1.0,0.0,0.0,0.0,1.0,0.0,0.0,0.0,1.0,-0.579396801758,0.00478840332031,10.165780249,1.0,0.0,0.0,0.0,1.0,0.0,0.0,0.0,1.0
1491900172549951004,730,1491900172547415014,,7.88868570328,-0.840531647205,90.0,0.00105399999302,1.0,0.0,0.0,0.0,1.0,0.0,0.0,0.0,1.0,-0.670731723309,2.43902444839,-0.426829278469,1.0,0.0,0.0,0.0,1.0,0.0,0.0,0.0,1.0,-0.588973571866,0.0526724365234,10.2040874756,1.0,0.0,0.0,0.0,1.0,0.0,0.0,0.0,1.0
1491900172572065955,731,1491900172568798194,,7.8855805397,-0.839172959328,90.0,0.0013119999785,1.0,0.0,0.0,0.0,1.0,0.0,0.0,0.0,1.0,-0.487804889679,2.31707310677,-0.365853667259,1.0,0.0,0.0,0.0,1.0,0.0,0.0,0.0,1.0,-0.588973571866,0.0191536132812,10.3716815918,1.0,0.0,0.0,0.0,1.0,0.0,0.0,0.0,1.0
1491900172594489292,732,1491900172590894604,,7.87808609009,-0.839424967766,90.0,0.00103199994192,1.0,0.0,0.0,0.0,1.0,0.0,0.0,0.0,1.0,-0.426829278469,2.01219511032,-0.365853667259,1.0,0.0,0.0,0.0,1.0,0.0,0.0,0.0,1.0,-0.517147558594,0.0239420166016,10.180145459,1.0,0.0,0.0,0.0,1.0,0.0,0.0,0.0,1.0
1491900172614957264,733,1491900172612364607,,7.87578105927,-0.840779066086,90.0,0.00136100000236,1.0,0.0,0.0,0.0,1.0,0.0,0.0,0.0,1.0,-0.548780500889,2.25609779358,-0.487804889679,1.0,0.0,0.0,0.0,1.0,0.0,0.0,0.0,1.0,-0.555454785156,-0.0478840332031,10.2711251221,1.0,0.0,0.0,0.0,1.0,0.0,0.0,0.0,1.0
1491900172634661068,734,1491900172632434506,,7.87182760239,-0.842505633831,90.0,0.00139999995008,1.0,0.0,0.0,0.0,1.0,0.0,0.0,0.0,1.0,-0.426829278469,2.31707310677,-0.304878056049,1.0,0.0,0.0,0.0,1.0,0.0,0.0,0.0,1.0,-0.550666381836,-0.143652099609,10.3621047852,1.0,0.0,0.0,0.0,1.0,0.0,0.0,0.0,1.0
1491900172656376488,735,1491900172653888311,,7.87128305435,-0.840838193893,90.0,0.00102700002026,1.0,0.0,0.0,0.0,1.0,0.0,0.0,0.0,1.0,-0.487804889679,2.68292689323,-0.304878056049,1.0,0.0,0.0,0.0,1.0,0.0,0.0,0.0,1.0,-0.656011254883,-0.00478840332031,10.0652237793,1.0,0.0,0.0,0.0,1.0,0.0,0.0,0.0,1.0
1491900172677170398,736,1491900172675070970,,7.87791013718,-0.844111204147,90.0,0.00121699995361,1.0,0.0,0.0,0.0,1.0,0.0,0.0,0.0,1.0,-0.426829278469,2.31707310677,-0.18292683363,1.0,0.0,0.0,0.0,1.0,0.0,0.0,0.0,1.0,-0.684741674805,0.0909796630859,10.3285859619,1.0,0.0,0.0,0.0,1.0,0.0,0.0,0.0,1.0
1491900172698836338,737,1491900172696380505,,7.88131189346,-0.844622731209,90.0,0.00118999998085,1.0,0.0,0.0,0.0,1.0,0.0,0.0,0.0,1.0,-0.365853667259,2.37804889679,-0.609756112099,1.0,0.0,0.0,0.0,1.0,0.0,0.0,0.0,1.0,-0.517147558594,-0.110133276367,10.4913916748,1.0,0.0,0.0,0.0,1.0,0.0,0.0,0.0,1.0
1491900172718785768,738,1491900172716691393,,7.88599824905,-0.848554611206,90.0,0.00109899998643,1.0,0.0,0.0,0.0,1.0,0.0,0.0,0.0,1.0,-0.487804889679,2.5,-0.365853667259,1.0,0.0,0.0,0.0,1.0,0.0,0.0,0.0,1.0,-0.612915625,-0.0335188255255,10.0556469727,1.0,0.0,0.0,0.0,1.0,0.0,0.0,0.0,1.0
1491900172740159938,739,1491900172737696604,,7.88894891739,-0.847362220287,90.0,0.000981000019237,1.0,0.0,0.0,0.0,1.0,0.0,0.0,0.0,1.0,-0.487804889679,2.01219511032,-0.304878056049,1.0,0.0,0.0,0.0,1.0,0.0,0.0,0.0,1.0,-0.732625708008,0.105344873047,9.88805285645,1.0,0.0,0.0,0.0,1.0,0.0,0.0,0.0,1.0
1491900172760972337,740,1491900172758765514,,7.88294363022,-0.84790790081,90.0,0.000968999986071,1.0,0.0,0.0,0.0,1.0,0.0,0.0,0.0,1.0,-0.670731723309,1.70731711388,-0.12195122242,1.0,0.0,0.0,0.0,1.0,0.0,0.0,0.0,1.0,-0.60812722168,0.0383072265625,10.1992990723,1.0,0.0,0.0,0.0,1.0,0.0,0.0,0.0,1.0
1491900172784359840,741,1491900172779711715,,7.87467956543,-0.840154230595,90.0,0.00100399996154,1.0,0.0,0.0,0.0,1.0,0.0,0.0,0.0,1.0,-0.18292683363,1.8292683363,-0.243902444839,1.0,0.0,0.0,0.0,1.0,0.0,0.0,0.0,1.0,-0.598550451572,0.0622492431641,10.4243540283,1.0,0.0,0.0,0.0,1.0,0.0,0.0,0.0,1.0
1491900172804547187,742,1491900172800628541,,7.86495304108,-0.83901399374,90.0,0.00106000003871,1.0,0.0,0.0,0.0,1.0,0.0,0.0,0.0,1.0,-0.548780500889,2.07317066193,-0.487804889679,1.0,0.0,0.0,0.0,1.0,0.0,0.0,0.0,1.0,-0.517147558594,-0.0383072265625,10.2280294922,1.0,0.0,0.0,0.0,1.0,0.0,0.0,0.0,1.0
1491900172825357242,743,1491900172822758335,,7.85859775543,-0.837454259396,90.0,0.00120299996343,1.0,0.0,0.0,0.0,1.0,0.0,0.0,0.0,1.0,-0.487804889679,2.43902444839,-0.12195122242,1.0,0.0,0.0,0.0,1.0,0.0,0.0,0.0,1.0,-0.555454785156,-0.0143652099609,10.1705686523,1.0,0.0,0.0,0.0,1.0,0.0,0.0,0.0,1.0
1491900172845296985,744,1491900172842717974,,7.85320234299,-0.837260663509,90.0,0.00101600005291,1.0,0.0,0.0,0.0,1.0,0.0,0.0,0.0,1.0,-0.670731723309,2.43902444839,-0.243902444839,1.0,0.0,0.0,0.0,1.0,0.0,0.0,0.0,1.0,-0.598550451572,0.0574608398438,10.165780249,1.0,0.0,0.0,0.0,1.0,0.0,0.0,0.0,1.0
1491900172867555842,745,1491900172863612300,,7.84947252274,-0.837424635887,90.0,0.00122600002214,1.0,0.0,0.0,0.0,1.0,0.0,0.0,0.0,1.0,-0.12195122242,2.25609779358,-0.18292683363,1.0,0.0,0.0,0.0,1.0,0.0,0.0,0.0,1.0,-0.574608398438,0.129286889648,10.2950671387,1.0,0.0,0.0,0.0,1.0,0.0,0.0,0.0,1.0
1491900172887916157,746,1491900172885394178,,7.8522605896,-0.835998773575,90.0,0.00177700002678,1.0,0.0,0.0,0.0,1.0,0.0,0.0,0.0,1.0,-0.487804889679,2.37804889679,-0.365853667259,1.0,0.0,0.0,0.0,1.0,0.0,0.0,0.0,1.0,-0.588973571866,0.105344873047,10.2280294922,1.0,0.0,0.0,0.0,1.0,0.0,0.0,0.0,1.0
1491900172908451733,747,1491900172906445691,,7.8573679924,-0.832990169525,90.0,0.00146199995652,1.0,0.0,0.0,0.0,1.0,0.0,0.0,0.0,1.0,-0.18292683363,2.56097555161,-0.12195122242,1.0,0.0,0.0,0.0,1.0,0.0,0.0,0.0,1.0,-0.536301208408,0.0,10.285490332,1.0,0.0,0.0,0.0,1.0,0.0,0.0,0.0,1.0
1491900172930127622,748,1491900172927633611,,7.86709785461,-0.833833217621,90.0,0.00122900004499,1.0,0.0,0.0,0.0,1.0,0.0,0.0,0.0,1.0,-0.731707334518,2.62195134163,-0.426829278469,1.0,0.0,0.0,0.0,1.0,0.0,0.0,0.0,1.0,-0.565031591797,0.00957680664062,10.1897222656,1.0,0.0,0.0,0.0,1.0,0.0,0.0,0.0,1.0
1491900172951068979,749,1491900172948165489,,7.87200784683,-0.834369599819,90.0,0.00114099995699,1.0,0.0,0.0,0.0,1.0,0.0,0.0,0.0,1.0,-0.548780500889,2.19512200356,-0.12195122242,1.0,0.0,0.0,0.0,1.0,0.0,0.0,0.0,1.0,-0.593762048251,0.110133276367,10.2615483154,1.0,0.0,0.0,0.0,1.0,0.0,0.0,0.0,1.0
1491900172971972836,750,1491900172968535648,,7.87538480759,-0.837508380413,90.0,0.00141400005668,1.0,0.0,0.0,0.0,1.0,0.0,0.0,0.0,1.0,-0.609756112099,2.31707310677,-0.548780500889,1.0,0.0,0.0,0.0,1.0,0.0,0.0,0.0,1.0,-0.512359155273,0.0383072265625,10.2376062988,1.0,0.0,0.0,0.0,1.0,0.0,0.0,0.0,1.0
1491900172996514298,751,1491900172990060964,,7.87761545181,-0.836682975292,90.0,0.0010450000409,1.0,0.0,0.0,0.0,1.0,0.0,0.0,0.0,1.0,-0.426829278469,2.13414645195,-0.487804889679,1.0,0.0,0.0,0.0,1.0,0.0,0.0,0.0,1.0,-0.603338854892,0.067037651051,10.1992990723,1.0,0.0,0.0,0.0,1.0,0.0,0.0,0.0,1.0
1491900173014471228,752,1491900173010562009,,7.87384557724,-0.838403940201,90.0,0.000989999971353,1.0,0.0,0.0,0.0,1.0,0.0,0.0,0.0,1.0,-0.548780500889,1.8292683363,-0.487804889679,1.0,0.0,0.0,0.0,1.0,0.0,0.0,0.0,1.0,-0.651222851562,0.0287304199219,10.2807019287,1.0,0.0,0.0,0.0,1.0,0.0,0.0,0.0,1.0
1491900173034069147,753,1491900173032518053,,7.86696815491,-0.845226109028,90.0,0.00170999998227,1.0,0.0,0.0,0.0,1.0,0.0,0.0,0.0,1.0,-0.548780500889,2.19512200356,-0.426829278469,1.0,0.0,0.0,0.0,1.0,0.0,0.0,0.0,1.0,-0.588973571866,-0.15801730957,10.2519715088,1.0,0.0,0.0,0.0,1.0,0.0,0.0,0.0,1.0
1491900173056981495,754,1491900173053243525,,7.86580896378,-0.847027003765,90.0,0.000991999986582,1.0,0.0,0.0,0.0,1.0,0.0,0.0,0.0,1.0,-0.609756112099,2.31707310677,0.0,1.0,0.0,0.0,0.0,1.0,0.0,0.0,0.0,1.0,-0.526724328702,-0.0622492431641,10.2088758789,1.0,0.0,0.0,0.0,1.0,0.0,0.0,0.0,1.0
1491900173075362851,755,1491900173073730143,,7.86079216003,-0.843553066254,90.0,0.00127200002316,1.0,0.0,0.0,0.0,1.0,0.0,0.0,0.0,1.0,-0.487804889679,2.37804889679,-0.18292683363,1.0,0.0,0.0,0.0,1.0,0.0,0.0,0.0,1.0,-0.708683691406,0.0909796630859,10.1370498291,1.0,0.0,0.0,0.0,1.0,0.0,0.0,0.0,1.0
1491900173096660615,756,1491900173095126813,,7.86092329025,-0.843414306641,90.0,0.003202999942,1.0,0.0,0.0,0.0,1.0,0.0,0.0,0.0,1.0,-0.12195122242,2.37804889679,-0.426829278469,1.0,0.0,0.0,0.0,1.0,0.0,0.0,0.0,1.0,-0.627280834961,0.129286889648,10.3046439453,1.0,0.0,0.0,0.0,1.0,0.0,0.0,0.0,1.0
1491900173117304316,757,1491900173115718586,,7.86394929886,-0.845365166664,90.0,0.00103499996476,1.0,0.0,0.0,0.0,1.0,0.0,0.0,0.0,1.0,-0.365853667259,2.43902444839,-0.426829278469,1.0,0.0,0.0,0.0,1.0,0.0,0.0,0.0,1.0,-0.560243188477,0.0239420166016,10.5584293213,1.0,0.0,0.0,0.0,1.0,0.0,0.0,0.0,1.0
1491900173138279736,758,1491900173136752548,,7.86733961105,-0.84639275074,90.0,0.0009710000013,1.0,0.0,0.0,0.0,1.0,0.0,0.0,0.0,1.0,-0.670731723309,2.37804889679,-0.426829278469,1.0,0.0,0.0,0.0,1.0,0.0,0.0,0.0,1.0,-0.641646044922,-0.0191536132812,10.1370498291,1.0,0.0,0.0,0.0,1.0,0.0,0.0,0.0,1.0
1491900173158807499,759,1491900173157248749,,7.86879920959,-0.84853887558,90.0,0.00107899995055,1.0,0.0,0.0,0.0,1.0,0.0,0.0,0.0,1.0,-0.426829278469,2.62195134163,-0.18292683363,1.0,0.0,0.0,0.0,1.0,0.0,0.0,0.0,1.0,-0.598550451572,0.0335188255255,10.0269165527,1.0,0.0,0.0,0.0,1.0,0.0,0.0,0.0,1.0
1491900173179906565,760,1491900173178352554,,7.86876773834,-0.848124206066,90.0,0.00108600000385,1.0,0.0,0.0,0.0,1.0,0.0,0.0,0.0,1.0,-0.365853667259,2.01219511032,-0.18292683363,1.0,0.0,0.0,0.0,1.0,0.0,0.0,0.0,1.0,-0.651222851562,0.134075302102,10.2328178955,1.0,0.0,0.0,0.0,1.0,0.0,0.0,0.0,1.0
1491900173201533964,761,1491900173199559849,,7.86494827271,-0.849436283112,90.0,0.00108399998862,1.0,0.0,0.0,0.0,1.0,0.0,0.0,0.0,1.0,-0.243902444839,2.01219511032,-0.243902444839,1.0,0.0,0.0,0.0,1.0,0.0,0.0,0.0,1.0,-0.536301208408,-0.067037651051,10.4530844482,1.0,0.0,0.0,0.0,1.0,0.0,0.0,0.0,1.0
1491900173223619592,762,1491900173220726466,,7.85812997818,-0.849255502224,90.0,0.00104100001045,1.0,0.0,0.0,0.0,1.0,0.0,0.0,0.0,1.0,-0.487804889679,2.01219511032,-0.365853667259,1.0,0.0,0.0,0.0,1.0,0.0,0.0,0.0,1.0,-0.598550451572,0.0143652099609,10.3381627686,1.0,0.0,0.0,0.0,1.0,0.0,0.0,0.0,1.0
1491900173245280116,763,1491900173243233813,,7.84949731827,-0.850368440151,90.0,0.00104000000283,1.0,0.0,0.0,0.0,1.0,0.0,0.0,0.0,1.0,-0.487804889679,2.25609779358,-0.548780500889,1.0,0.0,0.0,0.0,1.0,0.0,0.0,0.0,1.0,-0.512359155273,-0.067037651051,10.2376062988,1.0,0.0,0.0,0.0,1.0,0.0,0.0,0.0,1.0
1491900173267986942,764,1491900173265596264,,7.84177875519,-0.854621052742,90.0,0.00286999996752,1.0,0.0,0.0,0.0,1.0,0.0,0.0,0.0,1.0,-0.365853667259,2.13414645195,-0.487804889679,1.0,0.0,0.0,0.0,1.0,0.0,0.0,0.0,1.0,-0.574608398438,0.0,10.3046439453,1.0,0.0,0.0,0.0,1.0,0.0,0.0,0.0,1.0
1491900173288922987,765,1491900173285472569,,7.83795642853,-0.857168197632,90.0,0.00119099998847,1.0,0.0,0.0,0.0,1.0,0.0,0.0,0.0,1.0,-0.609756112099,2.43902444839,-0.304878056049,1.0,0.0,0.0,0.0,1.0,0.0,0.0,0.0,1.0,-0.574608398438,0.00957680664062,10.3812583984,1.0,0.0,0.0,0.0,1.0,0.0,0.0,0.0,1.0
1491900173308584292,766,1491900173306823458,,7.83933877945,-0.854117155075,90.0,0.00128199998289,1.0,0.0,0.0,0.0,1.0,0.0,0.0,0.0,1.0,-0.548780500889,2.56097555161,-0.365853667259,1.0,0.0,0.0,0.0,1.0,0.0,0.0,0.0,1.0,-0.493205541992,-0.00478840332031,10.1418382324,1.0,0.0,0.0,0.0,1.0,0.0,0.0,0.0,1.0
1491900173329359399,767,1491900173327418930,,7.8425526619,-0.853359639645,90.0,0.00112499995157,1.0,0.0,0.0,0.0,1.0,0.0,0.0,0.0,1.0,-0.487804889679,2.74390244484,-0.548780500889,1.0,0.0,0.0,0.0,1.0,0.0,0.0,0.0,1.0,-0.584185168546,0.0191536132812,10.2280294922,1.0,0.0,0.0,0.0,1.0,0.0,0.0,0.0,1.0
1491900173352565496,768,1491900173349648725,,7.84483766556,-0.858373224735,90.0,0.00719399983063,1.0,0.0,0.0,0.0,1.0,0.0,0.0,0.0,1.0,-0.548780500889,2.86585378647,-0.365853667259,1.0,0.0,0.0,0.0,1.0,0.0,0.0,0.0,1.0,-0.536301208408,-0.00478840332031,10.2950671387,1.0,0.0,0.0,0.0,1.0,0.0,0.0,0.0,1.0
1491900173373698311,769,1491900173370672842,,7.86122989655,-0.859292507172,90.0,0.00103199994192,1.0,0.0,0.0,0.0,1.0,0.0,0.0,0.0,1.0,-0.487804889679,2.56097555161,-0.426829278469,1.0,0.0,0.0,0.0,1.0,0.0,0.0,0.0,1.0,-0.560243188477,-0.0143652099609,10.314220752,1.0,0.0,0.0,0.0,1.0,0.0,0.0,0.0,1.0
1491900173394679721,770,1491900173391400397,,7.87493133545,-0.858723640442,90.0,0.00120599998627,1.0,0.0,0.0,0.0,1.0,0.0,0.0,0.0,1.0,-0.670731723309,2.62195134163,-0.487804889679,1.0,0.0,0.0,0.0,1.0,0.0,0.0,0.0,1.0,-0.588973571866,0.0383072265625,10.2376062988,1.0,0.0,0.0,0.0,1.0,0.0,0.0,0.0,1.0
1491900173414531182,771,1491900173411960869,,7.88413667679,-0.858686089516,90.0,0.00102900003549,1.0,0.0,0.0,0.0,1.0,0.0,0.0,0.0,1.0,-0.487804889679,2.68292689323,-0.792682945728,1.0,0.0,0.0,0.0,1.0,0.0,0.0,0.0,1.0,-0.651222851562,0.0191536132812,10.3333743652,1.0,0.0,0.0,0.0,1.0,0.0,0.0,0.0,1.0
1491900173434657643,772,1491900173433000976,,7.8892865181,-0.859761714935,90.0,0.00106599996798,1.0,0.0,0.0,0.0,1.0,0.0,0.0,0.0,1.0,-0.18292683363,2.31707310677,-0.609756112099,1.0,0.0,0.0,0.0,1.0,0.0,0.0,0.0,1.0,-0.536301208408,-0.143652099609,10.2040874756,1.0,0.0,0.0,0.0,1.0,0.0,0.0,0.0,1.0
1491900173455242021,773,1491900173453641917,,7.88932609558,-0.857646048069,90.0,0.00133700005244,1.0,0.0,0.0,0.0,1.0,0.0,0.0,0.0,1.0,-0.426829278469,2.07317066193,0.0609756112099,1.0,0.0,0.0,0.0,1.0,0.0,0.0,0.0,1.0,-0.790086547852,-0.0478840332031,10.0843773926,1.0,0.0,0.0,0.0,1.0,0.0,0.0,0.0,1.0
1491900173476593587,774,1491900173474895514,,7.88263845444,-0.85761898756,90.0,0.00161200005095,1.0,0.0,0.0,0.0,1.0,0.0,0.0,0.0,1.0,-0.0609756112099,1.70731711388,-0.304878056049,1.0,0.0,0.0,0.0,1.0,0.0,0.0,0.0,1.0,-0.646434448242,0.067037651051,10.1992990723,1.0,0.0,0.0,0.0,1.0,0.0,0.0,0.0,1.0
1491900173497942236,775,1491900173495913954,,7.87327241898,-0.85583794117,90.0,0.00111499999184,1.0,0.0,0.0,0.0,1.0,0.0,0.0,0.0,1.0,-0.243902444839,1.95121955872,-0.426829278469,1.0,0.0,0.0,0.0,1.0,0.0,0.0,0.0,1.0,-0.574608398438,-0.129286889648,10.5105452881,1.0,0.0,0.0,0.0,1.0,0.0,0.0,0.0,1.0
1491900173518854322,776,1491900173517248853,,7.86196756363,-0.853152930737,90.0,0.00100699998438,1.0,0.0,0.0,0.0,1.0,0.0,0.0,0.0,1.0,-0.487804889679,2.07317066193,0.0,1.0,0.0,0.0,0.0,1.0,0.0,0.0,0.0,1.0,-0.588973571866,0.0,9.95509050293,1.0,0.0,0.0,0.0,1.0,0.0,0.0,0.0,1.0
1491900173539632606,777,1491900173538047138,,7.8526673317,-0.855226457119,90.0,0.00101799995173,1.0,0.0,0.0,0.0,1.0,0.0,0.0,0.0,1.0,-0.426829278469,2.07317066193,0.0609756112099,1.0,0.0,0.0,0.0,1.0,0.0,0.0,0.0,1.0,-0.612915625,0.0478840332031,9.88805285645,1.0,0.0,0.0,0.0,1.0,0.0,0.0,0.0,1.0
1491900173560695839,778,1491900173559054588,,7.84899091721,-0.854740858078,90.0,0.00100199994631,1.0,0.0,0.0,0.0,1.0,0.0,0.0,0.0,1.0,-0.12195122242,2.62195134163,-0.670731723309,1.0,0.0,0.0,0.0,1.0,0.0,0.0,0.0,1.0,-0.732625708008,-0.0335188255255,10.4435076416,1.0,0.0,0.0,0.0,1.0,0.0,0.0,0.0,1.0
1491900173582111675,779,1491900173580211675,,7.84888219833,-0.855659306049,90.0,0.00112799997441,1.0,0.0,0.0,0.0,1.0,0.0,0.0,0.0,1.0,-0.487804889679,2.43902444839,-0.731707334518,1.0,0.0,0.0,0.0,1.0,0.0,0.0,0.0,1.0,-0.565031591797,0.0383072265625,10.2711251221,1.0,0.0,0.0,0.0,1.0,0.0,0.0,0.0,1.0
1491900173603579595,780,1491900173601455845,,7.85731124878,-0.860198318958,90.0,0.00130600004923,1.0,0.0,0.0,0.0,1.0,0.0,0.0,0.0,1.0,-0.609756112099,2.92682933807,-0.426829278469,1.0,0.0,0.0,0.0,1.0,0.0,0.0,0.0,1.0,-0.622492431641,-0.0239420166016,10.1226846191,1.0,0.0,0.0,0.0,1.0,0.0,0.0,0.0,1.0
1491900173624254077,781,1491900173622641421,,7.87261819839,-0.860891759396,90.0,0.00104200001806,1.0,0.0,0.0,0.0,1.0,0.0,0.0,0.0,1.0,-0.304878056049,3.04878044128,-0.243902444839,1.0,0.0,0.0,0.0,1.0,0.0,0.0,0.0,1.0,-0.670376464844,0.0430956298828,10.3573163818,1.0,0.0,0.0,0.0,1.0,0.0,0.0,0.0,1.0
1491900173644826684,782,1491900173643012153,,7.88576889038,-0.86264282465,90.0,0.0010450000409,1.0,0.0,0.0,0.0,1.0,0.0,0.0,0.0,1.0,-0.426829278469,3.04878044128,-0.12195122242,1.0,0.0,0.0,0.0,1.0,0.0,0.0,0.0,1.0,-0.703895288086,0.119710083008,10.2711251221,1.0,0.0,0.0,0.0,1.0,0.0,0.0,0.0,1.0
1491900173668379344,783,1491900173664892989,,7.90281057358,-0.865821301937,90.0,0.00166700000409,1.0,0.0,0.0,0.0,1.0,0.0,0.0,0.0,1.0,-0.426829278469,2.43902444839,-0.18292683363,1.0,0.0,0.0,0.0,1.0,0.0,0.0,0.0,1.0,-0.651222851562,0.0191536132812,10.1466266357,1.0,0.0,0.0,0.0,1.0,0.0,0.0,0.0,1.0
1491900173688048461,784,1491900173686075701,,7.91218280792,-0.866018652916,90.0,0.0012309999438,1.0,0.0,0.0,0.0,1.0,0.0,0.0,0.0,1.0,-0.792682945728,2.31707310677,-0.426829278469,1.0,0.0,0.0,0.0,1.0,0.0,0.0,0.0,1.0,-0.670376464844,-0.0143652099609,10.2519715088,1.0,0.0,0.0,0.0,1.0,0.0,0.0,0.0,1.0
1491900173710820704,785,1491900173707642110,,7.91824007034,-0.865361571312,90.0,0.00136500003282,1.0,0.0,0.0,0.0,1.0,0.0,0.0,0.0,1.0,-0.609756112099,2.37804889679,-0.487804889679,1.0,0.0,0.0,0.0,1.0,0.0,0.0,0.0,1.0,-0.579396801758,0.0191536132812,10.2040874756,1.0,0.0,0.0,0.0,1.0,0.0,0.0,0.0,1.0
1491900173730101436,786,1491900173727993676,,7.92066574097,-0.869221448898,90.0,0.00141100003384,1.0,0.0,0.0,0.0,1.0,0.0,0.0,0.0,1.0,-0.548780500889,2.19512200356,-0.426829278469,1.0,0.0,0.0,0.0,1.0,0.0,0.0,0.0,1.0,-0.565031591797,0.067037651051,10.1897222656,1.0,0.0,0.0,0.0,1.0,0.0,0.0,0.0,1.0
1491900173752259200,787,1491900173750605866,,7.91503000259,-0.867249250412,90.0,0.00120199995581,1.0,0.0,0.0,0.0,1.0,0.0,0.0,0.0,1.0,-0.243902444839,1.8902438879,-0.365853667259,1.0,0.0,0.0,0.0,1.0,0.0,0.0,0.0,1.0,-0.593762048251,-0.00478840332031,10.2807019287,1.0,0.0,0.0,0.0,1.0,0.0,0.0,0.0,1.0
1491900173773404411,788,1491900173771575036,,7.90692806244,-0.866696596146,90.0,0.00177500001155,1.0,0.0,0.0,0.0,1.0,0.0,0.0,0.0,1.0,-0.365853667259,2.01219511032,-0.548780500889,1.0,0.0,0.0,0.0,1.0,0.0,0.0,0.0,1.0,-0.502782348633,0.0383072265625,10.3333743652,1.0,0.0,0.0,0.0,1.0,0.0,0.0,0.0,1.0
1491900173795761238,789,1491900173794174362,,7.89674854279,-0.863306999207,90.0,0.00179100001696,1.0,0.0,0.0,0.0,1.0,0.0,0.0,0.0,1.0,-0.426829278469,2.07317066193,-0.487804889679,1.0,0.0,0.0,0.0,1.0,0.0,0.0,0.0,1.0,-0.588973571866,0.196324536133,10.0269165527,1.0,0.0,0.0,0.0,1.0,0.0,0.0,0.0,1.0
1491900173816256032,790,1491900173814644365,,7.89397573471,-0.864436089993,90.0,0.00111700000707,1.0,0.0,0.0,0.0,1.0,0.0,0.0,0.0,1.0,-0.487804889679,2.25609779358,-0.670731723309,1.0,0.0,0.0,0.0,1.0,0.0,0.0,0.0,1.0,-0.737414111328,0.0909796630859,10.1131078125,1.0,0.0,0.0,0.0,1.0,0.0,0.0,0.0,1.0
1491900173836928691,791,1491900173835289993,,7.8943066597,-0.86353468895,90.0,0.00130799994804,1.0,0.0,0.0,0.0,1.0,0.0,0.0,0.0,1.0,-0.365853667259,2.5,-0.609756112099,1.0,0.0,0.0,0.0,1.0,0.0,0.0,0.0,1.0,-0.656011254883,0.0287304199219,10.4818148682,1.0,0.0,0.0,0.0,1.0,0.0,0.0,0.0,1.0
1491900173857549372,792,1491900173855983486,,7.89838171005,-0.862094521523,90.0,0.00107799994294,1.0,0.0,0.0,0.0,1.0,0.0,0.0,0.0,1.0,-0.487804889679,2.62195134163,-0.914634168148,1.0,0.0,0.0,0.0,1.0,0.0,0.0,0.0,1.0,-0.612915625,-0.0718260498047,10.4674496582,1.0,0.0,0.0,0.0,1.0,0.0,0.0,0.0,1.0
1491900173878910520,793,1491900173877356301,,7.90395545959,-0.863516330719,90.0,0.00119800004177,1.0,0.0,0.0,0.0,1.0,0.0,0.0,0.0,1.0,-0.487804889679,2.86585378647,-0.304878056049,1.0,0.0,0.0,0.0,1.0,0.0,0.0,0.0,1.0,-0.636857641602,0.0909796630859,9.88805285645,1.0,0.0,0.0,0.0,1.0,0.0,0.0,0.0,1.0
1491900173900039951,794,1491900173898359065,,7.91355228424,-0.866186618805,90.0,0.00106899999082,1.0,0.0,0.0,0.0,1.0,0.0,0.0,0.0,1.0,-0.609756112099,2.5,-0.487804889679,1.0,0.0,0.0,0.0,1.0,0.0,0.0,0.0,1.0,-0.703895288086,0.0287304199219,10.1753570557,1.0,0.0,0.0,0.0,1.0,0.0,0.0,0.0,1.0
1491900173920796777,795,1491900173918845787,,7.92058992386,-0.867029547691,90.0,0.0010969999712,1.0,0.0,0.0,0.0,1.0,0.0,0.0,0.0,1.0,-0.487804889679,2.37804889679,-0.0609756112099,1.0,0.0,0.0,0.0,1.0,0.0,0.0,0.0,1.0,-0.60812722168,-0.0335188255255,10.3237975586,1.0,0.0,0.0,0.0,1.0,0.0,0.0,0.0,1.0
1491900173941758394,796,1491900173939770946,,7.9244093895,-0.866329133511,90.0,0.00107500003651,1.0,0.0,0.0,0.0,1.0,0.0,0.0,0.0,1.0,-0.304878056049,2.31707310677,-0.548780500889,1.0,0.0,0.0,0.0,1.0,0.0,0.0,0.0,1.0,-0.612915625,0.076614453125,10.4626612549,1.0,0.0,0.0,0.0,1.0,0.0,0.0,0.0,1.0
1491900173963829804,797,1491900173960347616,,7.92942523956,-0.864256799221,90.0,0.00108499999624,1.0,0.0,0.0,0.0,1.0,0.0,0.0,0.0,1.0,-0.12195122242,2.07317066193,-0.487804889679,1.0,0.0,0.0,0.0,1.0,0.0,0.0,0.0,1.0,-0.603338854892,0.0191536132812,10.3429511719,1.0,0.0,0.0,0.0,1.0,0.0,0.0,0.0,1.0
1491900173984975223,798,1491900173981649338,,7.92720031738,-0.864726066589,90.0,0.0009710000013,1.0,0.0,0.0,0.0,1.0,0.0,0.0,0.0,1.0,-0.365853667259,2.19512200356,0.0,1.0,0.0,0.0,0.0,1.0,0.0,0.0,0.0,1.0,-0.584185168546,0.0239420166016,10.165780249,1.0,0.0,0.0,0.0,1.0,0.0,0.0,0.0,1.0
1491900174004511893,799,1491900174002657518,,7.92149829865,-0.86274087429,90.0,0.00120699999388,1.0,0.0,0.0,0.0,1.0,0.0,0.0,0.0,1.0,-0.12195122242,2.13414645195,-0.304878056049,1.0,0.0,0.0,0.0,1.0,0.0,0.0,0.0,1.0,-0.574608398438,0.0239420166016,10.0795889893,1.0,0.0,0.0,0.0,1.0,0.0,0.0,0.0,1.0
1491900174027032365,800,1491900174024003406,,7.91614627838,-0.858738005161,90.0,0.00104999996256,1.0,0.0,0.0,0.0,1.0,0.0,0.0,0.0,1.0,-0.426829278469,2.01219511032,-0.18292683363,1.0,0.0,0.0,0.0,1.0,0.0,0.0,0.0,1.0,-0.569819995117,0.0622492431641,10.0891657959,1.0,0.0,0.0,0.0,1.0,0.0,0.0,0.0,1.0
1491900174047686795,801,1491900174045371534,,7.90968370438,-0.856983959675,90.0,0.00132799998391,1.0,0.0,0.0,0.0,1.0,0.0,0.0,0.0,1.0,-0.426829278469,1.76829278469,-0.365853667259,1.0,0.0,0.0,0.0,1.0,0.0,0.0,0.0,1.0,-0.627280834961,-0.0239420166016,10.1992990723,1.0,0.0,0.0,0.0,1.0,0.0,0.0,0.0,1.0
1491900174068417215,802,1491900174066546694,,7.90511465073,-0.851325809956,90.0,0.00212599989027,1.0,0.0,0.0,0.0,1.0,0.0,0.0,0.0,1.0,-0.12195122242,2.37804889679,-0.487804889679,1.0,0.0,0.0,0.0,1.0,0.0,0.0,0.0,1.0,-0.555454785156,0.124498486328,10.2232410889,1.0,0.0,0.0,0.0,1.0,0.0,0.0,0.0,1.0
1491900174091422583,803,1491900174087716801,,7.9007062912,-0.852334558964,90.0,0.00113099999726,1.0,0.0,0.0,0.0,1.0,0.0,0.0,0.0,1.0,-0.365853667259,2.31707310677,-0.609756112099,1.0,0.0,0.0,0.0,1.0,0.0,0.0,0.0,1.0,-0.550666381836,0.0287304199219,10.2088758789,1.0,0.0,0.0,0.0,1.0,0.0,0.0,0.0,1.0
1491900174111331752,804,1491900174109519148,,7.90809440613,-0.849162042141,90.0,0.00115499994718,1.0,0.0,0.0,0.0,1.0,0.0,0.0,0.0,1.0,-0.792682945728,2.5,-0.548780500889,1.0,0.0,0.0,0.0,1.0,0.0,0.0,0.0,1.0,-0.45968671875,-0.0574608398438,10.2759135254,1.0,0.0,0.0,0.0,1.0,0.0,0.0,0.0,1.0
1491900174133994203,805,1491900174130887224,,7.91720628738,-0.848195910454,90.0,0.00178799999412,1.0,0.0,0.0,0.0,1.0,0.0,0.0,0.0,1.0,-0.487804889679,2.80487799644,-0.731707334518,1.0,0.0,0.0,0.0,1.0,0.0,0.0,0.0,1.0,-0.579396801758,0.0478840332031,10.3429511719,1.0,0.0,0.0,0.0,1.0,0.0,0.0,0.0,1.0
1491900174156391082,806,1491900174152145560,,7.92870283127,-0.850930094719,90.0,0.00160600000527,1.0,0.0,0.0,0.0,1.0,0.0,0.0,0.0,1.0,-0.426829278469,2.80487799644,-0.609756112099,1.0,0.0,0.0,0.0,1.0,0.0,0.0,0.0,1.0,-0.60812722168,-0.076614453125,10.3621047852,1.0,0.0,0.0,0.0,1.0,0.0,0.0,0.0,1.0
